atomic number =    6
effective nuclear charge =    6
electron count =    2
net charge =    4
basis set = approximate basis set limit (UGBS)      
exchange correlation functional = PW91PW91            
cutoff radius (picometer) =  500
number of shells =  100
prepared by = Thomas A. Manz      
prepared date = May 2010            
net magnetization =    0
density in atomic units:
0.12531575E+03
0.24031778E+02
0.76807575E+01
0.25100741E+01
0.85032284E+00
0.33366966E+00
0.12715019E+00
0.45682069E-01
0.17137194E-01
0.65036942E-02
0.24370949E-02
0.95894572E-03
0.36925339E-03
0.13765083E-03
0.54444743E-04
0.21967680E-04
0.84557787E-05
0.33029580E-05
0.12982998E-05
0.49528023E-06
0.19406829E-06
0.79375653E-07
0.32473878E-07
0.13614637E-07
0.59439396E-08
0.26228142E-08
0.11478872E-08
0.49607485E-09
0.19810752E-09
0.70705539E-10
0.21405893E-10
0.56010812E-11
0.34676532E-11
0.52948926E-11
0.71521487E-11
0.78126802E-11
0.72458164E-11
0.58981331E-11
0.42951471E-11
0.27758327E-11
0.16062787E-11
0.84132977E-12
0.47912743E-12
0.44891475E-12
0.61977019E-12
0.91001501E-12
0.12184189E-11
0.14763043E-11
0.16578205E-11
0.17412906E-11
0.17276263E-11
0.16295277E-11
0.14705476E-11
0.12732743E-11
0.10573168E-11
0.84058997E-12
0.63803623E-12
0.46101193E-12
0.31592993E-12
0.20627201E-12
0.12817194E-12
0.80850149E-13
0.59389370E-13
0.58274369E-13
0.72682996E-13
0.96534854E-13
0.12600716E-12
0.15759594E-12
0.18776633E-12
0.21418425E-12
0.23510650E-12
0.24989811E-12
0.25834150E-12
0.26047992E-12
0.25686029E-12
0.24816856E-12
0.23528423E-12
0.21898385E-12
0.20046234E-12
0.18065824E-12
0.15988320E-12
0.13917856E-12
0.11894561E-12
0.99907753E-13
0.82486881E-13
0.66874911E-13
0.52959464E-13
0.41114661E-13
0.31089352E-13
0.22859110E-13
0.16499504E-13
0.11760845E-13
0.84210889E-14
0.64024459E-14
0.55146211E-14
0.55287204E-14
0.63001485E-14
0.76645970E-14
0.94779150E-14
0.11578317E-13
atomic number =    6
effective nuclear charge =    6
electron count =    4
net charge =    2
basis set = approximate basis set limit (UGBS)      
exchange correlation functional = PW91PW91            
cutoff radius (picometer) =  500
number of shells =  100
prepared by = Thomas A. Manz      
prepared date = May 2010            
net magnetization =    0
density in atomic units:
0.13164197E+03
0.25061232E+02
0.78786240E+01
0.25235841E+01
0.86340177E+00
0.38029268E+00
0.20542586E+00
0.14419083E+00
0.12290062E+00
0.11050738E+00
0.99169090E-01
0.87972336E-01
0.76169387E-01
0.64583018E-01
0.54551162E-01
0.45642238E-01
0.37546780E-01
0.30807532E-01
0.25139099E-01
0.20302743E-01
0.16419267E-01
0.13307293E-01
0.10705542E-01
0.85907672E-02
0.69106142E-02
0.55444874E-02
0.44413642E-02
0.35699124E-02
0.28583047E-02
0.22921786E-02
0.18433071E-02
0.14776421E-02
0.11876912E-02
0.95643848E-03
0.77033736E-03
0.61937934E-03
0.49777760E-03
0.40047304E-03
0.32334932E-03
0.26072760E-03
0.21029857E-03
0.16973172E-03
0.13684620E-03
0.11092707E-03
0.89867179E-04
0.72422357E-04
0.58502836E-04
0.47469475E-04
0.38401839E-04
0.31062460E-04
0.25126566E-04
0.20293417E-04
0.16436143E-04
0.13334903E-04
0.10808618E-04
0.87518129E-05
0.70741344E-05
0.57186385E-05
0.46248833E-05
0.37433613E-05
0.30272035E-05
0.24464348E-05
0.19788629E-05
0.15988602E-05
0.12906144E-05
0.10446354E-05
0.84509469E-06
0.68147403E-06
0.54941785E-06
0.44239982E-06
0.35705258E-06
0.28818067E-06
0.23232822E-06
0.18755848E-06
0.15112535E-06
0.12175572E-06
0.98163824E-07
0.79114621E-07
0.63842670E-07
0.51637873E-07
0.41713541E-07
0.33688359E-07
0.27222477E-07
0.22029161E-07
0.17888370E-07
0.14568721E-07
0.11875485E-07
0.97030881E-08
0.79459817E-08
0.65111259E-08
0.53631943E-08
0.44274047E-08
0.36625292E-08
0.30472018E-08
0.25430746E-08
0.21306747E-08
0.17956991E-08
0.15182245E-08
0.12886404E-08
0.10999646E-08
