atomic number =    6
effective nuclear charge =    6
electron count =    1
net charge =    5
basis set = approximate basis set limit (UGBS)      
exchange correlation functional = PW91PW91            
cutoff radius (picometer) =  500
number of shells =  100
prepared by = Thomas A. Manz      
prepared date = July 2010           
magnetization =    1
density in atomic units:
0.71038498E+02
0.13216914E+02
0.39933181E+01
0.12085894E+01
0.37258846E+00
0.13366902E+00
0.46170678E-01
0.14784894E-01
0.49040224E-02
0.16341093E-02
0.52940333E-03
0.17956854E-03
0.59130733E-04
0.18640771E-04
0.62877348E-05
0.21947376E-05
0.73726500E-06
0.25263395E-06
0.87758771E-07
0.28971536E-07
0.95621866E-08
0.31536791E-08
0.10188721E-08
0.32639488E-09
0.11560162E-09
0.38846530E-10
0.14371751E-10
0.57940610E-11
0.21672061E-11
0.80383454E-12
0.30317711E-12
0.11609153E-12
0.39935140E-13
0.14953804E-13
0.52246830E-14
0.16387849E-14
0.52797109E-15
0.16096610E-15
0.50924623E-16
0.14483263E-16
0.41596076E-17
0.10968998E-17
0.28803124E-18
0.73719202E-19
0.18588398E-19
0.44274240E-20
0.10393491E-20
0.23023472E-21
0.50971985E-22
0.10363095E-22
0.21017191E-23
0.40602323E-24
0.79667667E-25
0.18551606E-25
0.32626440E-26
0.54059881E-27
0.86560759E-28
0.13798223E-28
0.20610488E-29
0.32194305E-30
0.90340902E-31
0.12612650E-31
0.17495983E-32
0.23925479E-33
0.30981999E-34
0.38607284E-35
0.47403241E-36
0.54674120E-37
0.13365976E-37
0.00000000E+00
0.00000000E+00
0.00000000E+00
0.00000000E+00
0.00000000E+00
0.00000000E+00
0.00000000E+00
0.00000000E+00
0.00000000E+00
0.00000000E+00
0.00000000E+00
0.00000000E+00
0.00000000E+00
0.00000000E+00
0.00000000E+00
0.00000000E+00
0.00000000E+00
0.00000000E+00
0.00000000E+00
0.00000000E+00
0.00000000E+00
0.00000000E+00
0.00000000E+00
0.00000000E+00
0.00000000E+00
0.00000000E+00
0.00000000E+00
0.00000000E+00
0.00000000E+00
0.00000000E+00
0.00000000E+00
atomic number =    6
effective nuclear charge =    6
electron count =    2
net charge =    4
basis set = approximate basis set limit (UGBS)      
exchange correlation functional = PW91PW91            
cutoff radius (picometer) =  500
number of shells =  100
prepared by = Thomas A. Manz      
prepared date = July 2010           
magnetization =    0
density in atomic units:
0.12694000E+03
0.24290100E+02
0.77287354E+01
0.25076115E+01
0.84027475E+00
0.32592696E+00
0.12247717E+00
0.43181624E-01
0.15818445E-01
0.58287396E-02
0.21036863E-02
0.79311873E-03
0.29046161E-03
0.10189170E-03
0.37721366E-04
0.14149580E-04
0.49618384E-05
0.16815651E-05
0.54374959E-06
0.14665136E-06
0.72503113E-07
0.49988053E-07
0.30766667E-07
0.12268872E-07
0.58323901E-08
0.23606483E-08
0.94597574E-09
0.39496276E-09
0.13294910E-09
0.49949708E-10
0.17694877E-10
0.60730579E-11
0.20092114E-11
0.65341271E-12
0.20399788E-12
0.62219401E-13
0.19162233E-13
0.59978763E-14
0.18477043E-14
0.55181105E-15
0.16781933E-15
0.47778098E-16
0.13373973E-16
0.39483250E-17
0.10539255E-17
0.29133523E-18
0.73734415E-19
0.17035811E-19
0.41909590E-20
0.10796621E-20
0.23746089E-21
0.51221183E-22
0.11497143E-22
0.22530349E-23
0.46708918E-24
0.88305386E-25
0.16108641E-25
0.30041428E-26
0.52140490E-27
0.94494724E-28
0.13988383E-28
0.21381112E-29
0.33234284E-30
0.50083506E-31
0.75492238E-32
0.97162763E-33
0.15427458E-33
0.35353483E-34
0.44373699E-35
0.53436138E-36
0.63831662E-37
0.16046022E-37
0.00000000E+00
0.00000000E+00
0.00000000E+00
0.00000000E+00
0.00000000E+00
0.00000000E+00
0.00000000E+00
0.00000000E+00
0.00000000E+00
0.00000000E+00
0.00000000E+00
0.00000000E+00
0.00000000E+00
0.00000000E+00
0.00000000E+00
0.00000000E+00
0.00000000E+00
0.00000000E+00
0.00000000E+00
0.00000000E+00
0.00000000E+00
0.00000000E+00
0.00000000E+00
0.00000000E+00
0.00000000E+00
0.00000000E+00
0.00000000E+00
0.00000000E+00
atomic number =    6
effective nuclear charge =    6
electron count =    3
net charge =    3
basis set = approximate basis set limit (UGBS)      
exchange correlation functional = PW91PW91            
cutoff radius (picometer) =  500
number of shells =  100
prepared by = Thomas A. Manz      
prepared date = July 2010           
magnetization =    1
density in atomic units:
0.13042999E+03
0.24859041E+02
0.78366237E+01
0.25172210E+01
0.85547680E+00
0.36321285E+00
0.17891638E+00
0.11063412E+00
0.85638002E-01
0.72015777E-01
0.61263252E-01
0.51862355E-01
0.42804256E-01
0.34549095E-01
0.27871639E-01
0.22307482E-01
0.17551966E-01
0.13824872E-01
0.10865141E-01
0.84738871E-02
0.66495268E-02
0.52546151E-02
0.41362629E-02
0.32607669E-02
0.25876218E-02
0.20550382E-02
0.16344151E-02
0.13079277E-02
0.10446983E-02
0.83714206E-03
0.67348679E-03
0.54052169E-03
0.43513640E-03
0.35096466E-03
0.28309308E-03
0.22787345E-03
0.18331068E-03
0.14752387E-03
0.11907940E-03
0.95949945E-04
0.77298988E-04
0.62285304E-04
0.50121540E-04
0.40509396E-04
0.32707540E-04
0.26278891E-04
0.21169131E-04
0.17134746E-04
0.13832235E-04
0.11162388E-04
0.89939249E-05
0.72254188E-05
0.58267447E-05
0.46939454E-05
0.37786281E-05
0.30187075E-05
0.24126186E-05
0.19523145E-05
0.15819710E-05
0.12833335E-05
0.10419730E-05
0.84453825E-06
0.68520120E-06
0.55724416E-06
0.45166601E-06
0.36770302E-06
0.29966242E-06
0.24221202E-06
0.19711950E-06
0.15937263E-06
0.12933519E-06
0.10519180E-06
0.85162853E-07
0.69214309E-07
0.55943453E-07
0.45224294E-07
0.36566512E-07
0.29449030E-07
0.23809989E-07
0.19202478E-07
0.15490096E-07
0.12435882E-07
0.99816093E-08
0.80307911E-08
0.64257852E-08
0.51547375E-08
0.41374171E-08
0.33183480E-08
0.26455889E-08
0.21126001E-08
0.16893461E-08
0.13439478E-08
0.10737251E-08
0.85376534E-09
0.67922401E-09
0.54264276E-09
0.43149365E-09
0.34287295E-09
0.27335798E-09
0.21641273E-09
atomic number =    6
effective nuclear charge =    6
electron count =    4
net charge =    2
basis set = approximate basis set limit (UGBS)      
exchange correlation functional = PW91PW91            
cutoff radius (picometer) =  500
number of shells =  100
prepared by = Thomas A. Manz      
prepared date = July 2010           
magnetization =    0
density in atomic units:
0.13319800E+03
0.25316280E+02
0.79268522E+01
0.25258892E+01
0.86598557E+00
0.39040887E+00
0.22163595E+00
0.16316955E+00
0.14146666E+00
0.12654465E+00
0.11167748E+00
0.96941411E-01
0.81794828E-01
0.67419127E-01
0.55418737E-01
0.45145933E-01
0.36147974E-01
0.28929889E-01
0.23071595E-01
0.18241519E-01
0.14487071E-01
0.11566789E-01
0.91893841E-02
0.73021846E-02
0.58331490E-02
0.46584383E-02
0.37223804E-02
0.29902617E-02
0.23965060E-02
0.19260092E-02
0.15537078E-02
0.12501916E-02
0.10091192E-02
0.81621268E-03
0.66032592E-03
0.53327315E-03
0.43040627E-03
0.34766228E-03
0.28175811E-03
0.22794458E-03
0.18441344E-03
0.14925499E-03
0.12064637E-03
0.98012519E-04
0.79566227E-04
0.64232874E-04
0.51956624E-04
0.42206579E-04
0.34186451E-04
0.27691411E-04
0.22425858E-04
0.18120203E-04
0.14681929E-04
0.11903879E-04
0.96466856E-05
0.78110616E-05
0.63162956E-05
0.50927679E-05
0.41053922E-05
0.32989171E-05
0.26482242E-05
0.21263684E-05
0.17090433E-05
0.13779467E-05
0.11135650E-05
0.90147250E-06
0.72974188E-06
0.58793211E-06
0.47289549E-06
0.38069498E-06
0.30605310E-06
0.24638666E-06
0.19809437E-06
0.15876441E-06
0.12732609E-06
0.10184107E-06
0.81361449E-07
0.64889669E-07
0.51746731E-07
0.41321329E-07
0.32854576E-07
0.26065623E-07
0.20678957E-07
0.16317818E-07
0.12929665E-07
0.10248312E-07
0.80660030E-08
0.63687144E-08
0.50289652E-08
0.39453725E-08
0.30930021E-08
0.24261810E-08
0.18970181E-08
0.14809236E-08
0.11563972E-08
0.90040558E-09
0.70139528E-09
0.54465571E-09
0.42271114E-09
0.32730033E-09
atomic number =    6
effective nuclear charge =    6
electron count =    5
net charge =    1
basis set = approximate basis set limit (UGBS)      
exchange correlation functional = PW91PW91            
cutoff radius (picometer) =  500
number of shells =  100
prepared by = Thomas A. Manz      
prepared date = July 2010           
magnetization =    1
density in atomic units:
0.13230901E+03
0.25205179E+02
0.79588742E+01
0.25981326E+01
0.94234705E+00
0.46100336E+00
0.28402406E+00
0.21714453E+00
0.18840677E+00
0.16741538E+00
0.14735711E+00
0.12832609E+00
0.10922023E+00
0.91225699E-01
0.76166838E-01
0.63154340E-01
0.51598441E-01
0.42166788E-01
0.34357902E-01
0.27780926E-01
0.22550430E-01
0.18387426E-01
0.14919808E-01
0.12103186E-01
0.98619191E-02
0.80313543E-02
0.65430291E-02
0.53562825E-02
0.43760873E-02
0.35856126E-02
0.29492364E-02
0.24217216E-02
0.19956145E-02
0.16488800E-02
0.13639394E-02
0.11276158E-02
0.93279954E-03
0.77304972E-03
0.64329908E-03
0.53520687E-03
0.44580013E-03
0.37189163E-03
0.31030303E-03
0.26029142E-03
0.21845623E-03
0.18276149E-03
0.15334862E-03
0.12929067E-03
0.10885826E-03
0.91755828E-04
0.77429060E-04
0.65314634E-04
0.55268050E-04
0.46869674E-04
0.39741142E-04
0.33705113E-04
0.28580047E-04
0.24218336E-04
0.20553269E-04
0.17442087E-04
0.14806387E-04
0.12586172E-04
0.10765210E-04
0.92722421E-05
0.80282807E-05
0.69507964E-05
0.60320440E-05
0.52293703E-05
0.45304459E-05
0.39412894E-05
0.34297339E-05
0.29899900E-05
0.26087150E-05
0.22735544E-05
0.19746201E-05
0.17197103E-05
0.14964500E-05
0.12979114E-05
0.11274645E-05
0.98167106E-06
0.85191891E-06
0.73729819E-06
0.64081252E-06
0.55421407E-06
0.48093318E-06
0.41703990E-06
0.36020836E-06
0.31255621E-06
0.27079994E-06
0.23412804E-06
0.20235647E-06
0.17510267E-06
0.15141410E-06
0.13049144E-06
0.11249589E-06
0.97147236E-07
0.83604071E-07
0.71817858E-07
0.61864526E-07
0.52998853E-07
atomic number =    6
effective nuclear charge =    6
electron count =    6
net charge =    0
basis set = approximate basis set limit (UGBS)      
exchange correlation functional = PW91PW91            
cutoff radius (picometer) =  500
number of shells =  100
prepared by = Thomas A. Manz      
prepared date = April 2010          
magnetization =    2
density in atomic units:
0.13164200E+03
0.25120724E+02
0.79814138E+01
0.26514659E+01
0.99977273E+00
0.51520163E+00
0.33319098E+00
0.26108888E+00
0.22790433E+00
0.20299225E+00
0.17953587E+00
0.15756534E+00
0.13560598E+00
0.11483386E+00
0.97265996E-01
0.81872880E-01
0.67973115E-01
0.56419041E-01
0.46669766E-01
0.38297024E-01
0.31511445E-01
0.26009616E-01
0.21347588E-01
0.17499240E-01
0.14390253E-01
0.11816643E-01
0.96984664E-02
0.79911230E-02
0.65674530E-02
0.54097096E-02
0.44703716E-02
0.36872958E-02
0.30507757E-02
0.25302572E-02
0.21006351E-02
0.17427246E-02
0.14466095E-02
0.12029352E-02
0.10042224E-02
0.83809806E-03
0.70027704E-03
0.58602635E-03
0.49046433E-03
0.41264898E-03
0.34734909E-03
0.29140321E-03
0.24518435E-03
0.20725638E-03
0.17491012E-03
0.14772710E-03
0.12489174E-03
0.10554456E-03
0.89474190E-04
0.76025477E-04
0.64611231E-04
0.54920030E-04
0.46660458E-04
0.39676517E-04
0.33769997E-04
0.28768382E-04
0.24514880E-04
0.20900854E-04
0.17841790E-04
0.15228376E-04
0.12975683E-04
0.11068360E-04
0.94428806E-05
0.80473865E-05
0.68661202E-05
0.58560013E-05
0.50043418E-05
0.42811234E-05
0.36627455E-05
0.31234915E-05
0.26599635E-05
0.22677984E-05
0.19337308E-05
0.16480882E-05
0.13981135E-05
0.11867776E-05
0.10094467E-05
0.85650322E-06
0.72734571E-06
0.61696198E-06
0.52409371E-06
0.44595444E-06
0.37912608E-06
0.32156854E-06
0.27343719E-06
0.23153994E-06
0.19685567E-06
0.16697076E-06
0.14161925E-06
0.12028096E-06
0.10206725E-06
0.86582830E-07
0.73410817E-07
0.62081959E-07
0.52578986E-07
0.44448562E-07
atomic number =    6
effective nuclear charge =    6
electron count =    7
net charge =   -1
basis set = approximate basis set limit (UGBS)      
exchange correlation functional = PW91PW91            
cutoff radius (picometer) =  500
number of shells =  100
prepared by = Thomas A. Manz      
prepared date = July 2010           
magnetization =    3
density in atomic units:
0.13099300E+03
0.25021702E+02
0.79746575E+01
0.26679645E+01
0.10178739E+01
0.53009337E+00
0.34459242E+00
0.26982433E+00
0.23522314E+00
0.20979835E+00
0.18636587E+00
0.16470098E+00
0.14312825E+00
0.12269644E+00
0.10534410E+00
0.90038493E-01
0.76108217E-01
0.64418823E-01
0.54442946E-01
0.45768995E-01
0.38634580E-01
0.32755855E-01
0.27682830E-01
0.23405926E-01
0.19871518E-01
0.16869815E-01
0.14331089E-01
0.12223006E-01
0.10409424E-01
0.88849086E-02
0.76050665E-02
0.64994353E-02
0.55680694E-02
0.47784871E-02
0.41023651E-02
0.35184289E-02
0.30172705E-02
0.25898053E-02
0.22290538E-02
0.19169644E-02
0.16495027E-02
0.14203592E-02
0.12226083E-02
0.10567552E-02
0.91341505E-03
0.78707834E-03
0.67979930E-03
0.58935984E-03
0.51023922E-03
0.44211408E-03
0.38335557E-03
0.33234950E-03
0.28893771E-03
0.25169470E-03
0.21931368E-03
0.19115837E-03
0.16656838E-03
0.14525439E-03
0.12682256E-03
0.11086721E-03
0.96945761E-04
0.84813248E-04
0.74293712E-04
0.65084234E-04
0.57018398E-04
0.50070030E-04
0.43972301E-04
0.38542083E-04
0.33796980E-04
0.29609955E-04
0.25985595E-04
0.22811895E-04
0.20009915E-04
0.17568356E-04
0.15400936E-04
0.13500539E-04
0.11824970E-04
0.10351746E-04
0.90685326E-05
0.79489701E-05
0.69624011E-05
0.60830830E-05
0.53083950E-05
0.46292471E-05
0.40388786E-05
0.35171447E-05
0.30565907E-05
0.26543305E-05
0.23071609E-05
0.20029474E-05
0.17403506E-05
0.15126250E-05
0.13197505E-05
0.11512234E-05
0.10035667E-05
0.87456897E-06
0.76156249E-06
0.66305415E-06
0.57590154E-06
0.50079825E-06
atomic number =    6
effective nuclear charge =    6
electron count =    8
net charge =   -2
basis set = approximate basis set limit (UGBS)      
exchange correlation functional = PW91PW91            
cutoff radius (picometer) =  500
number of shells =  100
prepared by = Thomas A. Manz      
prepared date = July 2010           
magnetization =    2
density in atomic units:
0.13066701E+03
0.24970255E+02
0.79680018E+01
0.26718740E+01
0.10219668E+01
0.53234917E+00
0.34512839E+00
0.26936176E+00
0.23454314E+00
0.20944981E+00
0.18670382E+00
0.16580914E+00
0.14504656E+00
0.12536243E+00
0.10859521E+00
0.93764462E-01
0.80211677E-01
0.68792038E-01
0.59005536E-01
0.50445557E-01
0.43363225E-01
0.37476871E-01
0.32349147E-01
0.27977630E-01
0.24311513E-01
0.21149069E-01
0.18424131E-01
0.16116012E-01
0.14084908E-01
0.12337205E-01
0.10829166E-01
0.94968015E-02
0.83405757E-02
0.73337066E-02
0.64500077E-02
0.56640343E-02
0.49717957E-02
0.43658535E-02
0.38408646E-02
0.33744483E-02
0.29663411E-02
0.26066271E-02
0.22892074E-02
0.20179001E-02
0.17774468E-02
0.15613195E-02
0.13742816E-02
0.12126956E-02
0.10689732E-02
0.94271527E-03
0.83185761E-03
0.73380873E-03
0.64889132E-03
0.57472807E-03
0.50908839E-03
0.45101615E-03
0.39948750E-03
0.35406850E-03
0.31412253E-03
0.27905259E-03
0.24789030E-03
0.22034089E-03
0.19605146E-03
0.17445374E-03
0.15528299E-03
0.13849539E-03
0.12357107E-03
0.11015461E-03
0.98210534E-04
0.87535009E-04
0.78173478E-04
0.69843234E-04
0.62406718E-04
0.55832574E-04
0.49909489E-04
0.44629454E-04
0.39932071E-04
0.35705809E-04
0.31953055E-04
0.28618142E-04
0.25611860E-04
0.22912425E-04
0.20495803E-04
0.18340304E-04
0.16429582E-04
0.14726696E-04
0.13193905E-04
0.11814663E-04
0.10577226E-04
0.94623974E-05
0.84777093E-05
0.75984835E-05
0.68087384E-05
0.61011988E-05
0.55076280E-05
0.49786991E-05
0.45031793E-05
0.40788982E-05
0.36895451E-05
0.33426250E-05
atomic number =    6
effective nuclear charge =    6
electron count =    9
net charge =   -3
basis set = approximate basis set limit (UGBS)      
exchange correlation functional = PW91PW91            
cutoff radius (picometer) =  500
number of shells =  100
prepared by = Thomas A. Manz      
prepared date = July 2010           
magnetization =    1
density in atomic units:
0.13041299E+03
0.24929453E+02
0.79618917E+01
0.26739628E+01
0.10242528E+01
0.53327543E+00
0.34479824E+00
0.26828068E+00
0.23330422E+00
0.20851098E+00
0.18633886E+00
0.16611756E+00
0.14606589E+00
0.12704609E+00
0.11081777E+00
0.96430972E-01
0.83255365E-01
0.72128616E-01
0.62569857E-01
0.54187573E-01
0.47227751E-01
0.41418158E-01
0.36327764E-01
0.31954102E-01
0.28251141E-01
0.25018658E-01
0.22194507E-01
0.19764062E-01
0.17587420E-01
0.15678456E-01
0.13999088E-01
0.12483127E-01
0.11140947E-01
0.99475291E-02
0.88777784E-02
0.79077138E-02
0.70361239E-02
0.62584900E-02
0.55726636E-02
0.49532810E-02
0.44015679E-02
0.39086035E-02
0.34671256E-02
0.30840435E-02
0.27406684E-02
0.24279056E-02
0.21537908E-02
0.19147373E-02
0.16996269E-02
0.15088427E-02
0.13397163E-02
0.11888096E-02
0.10570323E-02
0.94103679E-03
0.83764148E-03
0.74548653E-03
0.66322886E-03
0.59034064E-03
0.52589079E-03
0.46898614E-03
0.41821031E-03
0.37305712E-03
0.33309904E-03
0.29742654E-03
0.26563028E-03
0.23771916E-03
0.21282093E-03
0.19035906E-03
0.17033059E-03
0.15239276E-03
0.13657607E-03
0.12245939E-03
0.10982309E-03
0.98613484E-04
0.88512425E-04
0.79485457E-04
0.71432143E-04
0.64203814E-04
0.57759818E-04
0.52030402E-04
0.46842051E-04
0.42163840E-04
0.37951126E-04
0.34172772E-04
0.30813400E-04
0.27807229E-04
0.25090512E-04
0.22647489E-04
0.20444155E-04
0.18445744E-04
0.16661836E-04
0.15044257E-04
0.13574954E-04
0.12245431E-04
0.11045491E-04
0.99677045E-05
0.90013418E-05
0.81251101E-05
0.73318802E-05
0.66225934E-05
atomic number =    6
effective nuclear charge =    6
electron count =   10
net charge =   -4
basis set = approximate basis set limit (UGBS)      
exchange correlation functional = PW91PW91            
cutoff radius (picometer) =  500
number of shells =  100
prepared by = Thomas A. Manz      
prepared date = July 2010           
magnetization =    0
density in atomic units:
0.13022701E+03
0.24898746E+02
0.79558678E+01
0.26736269E+01
0.10239332E+01
0.53197819E+00
0.34266654E+00
0.26564032E+00
0.23056704E+00
0.20605028E+00
0.18438952E+00
0.16479230E+00
0.14540523E+00
0.12701362E+00
0.11130450E+00
0.97350627E-01
0.84560111E-01
0.73755056E-01
0.64472385E-01
0.56342199E-01
0.49596846E-01
0.43973070E-01
0.39044034E-01
0.34801837E-01
0.31199358E-01
0.28036559E-01
0.25251428E-01
0.22827739E-01
0.20630859E-01
0.18674377E-01
0.16927602E-01
0.15318853E-01
0.13871113E-01
0.12559373E-01
0.11359770E-01
0.10252892E-01
0.92395721E-02
0.83183413E-02
0.74922051E-02
0.67341514E-02
0.60463855E-02
0.54238676E-02
0.48579392E-02
0.43588518E-02
0.39063310E-02
0.34885963E-02
0.31176072E-02
0.27911146E-02
0.24934800E-02
0.22269348E-02
0.19882282E-02
0.17733801E-02
0.15839583E-02
0.14160152E-02
0.12651619E-02
0.11298620E-02
0.10081957E-02
0.89986745E-03
0.80358452E-03
0.71806245E-03
0.64156635E-03
0.57323044E-03
0.51257067E-03
0.45828568E-03
0.40974110E-03
0.36707555E-03
0.32893661E-03
0.29443842E-03
0.26370978E-03
0.23617018E-03
0.21190054E-03
0.19022070E-03
0.17077409E-03
0.15353452E-03
0.13800018E-03
0.12411039E-03
0.11171746E-03
0.10061341E-03
0.90701760E-04
0.81892067E-04
0.73909228E-04
0.66712179E-04
0.60231429E-04
0.54414242E-04
0.49229169E-04
0.44579541E-04
0.40378673E-04
0.36595859E-04
0.33178942E-04
0.30067951E-04
0.27286769E-04
0.24757866E-04
0.22453165E-04
0.20387733E-04
0.18501121E-04
0.16793661E-04
0.15250002E-04
0.13841154E-04
0.12560021E-04
0.11408013E-04
atomic number =    6
effective nuclear charge =    6
electron count =   11
net charge =   -5
basis set = approximate basis set limit (UGBS)      
exchange correlation functional = PW91PW91            
cutoff radius (picometer) =  500
number of shells =  100
prepared by = Thomas A. Manz      
prepared date = July 2010           
magnetization =    1
density in atomic units:
0.13090700E+03
0.25002815E+02
0.79636564E+01
0.26574287E+01
0.10063660E+01
0.51802438E+00
0.33268344E+00
0.25876155E+00
0.22544132E+00
0.20165421E+00
0.18001914E+00
0.16007425E+00
0.14019160E+00
0.12131444E+00
0.10524608E+00
0.91050394E-01
0.78123778E-01
0.67280956E-01
0.58042023E-01
0.50028123E-01
0.43453634E-01
0.38051277E-01
0.33397596E-01
0.29479168E-01
0.26239185E-01
0.23480834E-01
0.21134740E-01
0.19169476E-01
0.17455986E-01
0.15988842E-01
0.14726742E-01
0.13602177E-01
0.12617849E-01
0.11743144E-01
0.10953547E-01
0.10227271E-01
0.95583908E-02
0.89419857E-02
0.83759241E-02
0.78408532E-02
0.73376237E-02
0.68621733E-02
0.64092851E-02
0.59897834E-02
0.55895103E-02
0.51996824E-02
0.48342012E-02
0.44946079E-02
0.41685430E-02
0.38608129E-02
0.35708300E-02
0.32963478E-02
0.30427789E-02
0.28072649E-02
0.25865543E-02
0.23801529E-02
0.21868567E-02
0.20080078E-02
0.18432181E-02
0.16916619E-02
0.15515432E-02
0.14224253E-02
0.13042565E-02
0.11954085E-02
0.10952683E-02
0.10048808E-02
0.92189567E-03
0.84498461E-03
0.77465171E-03
0.71012712E-03
0.65186044E-03
0.59859524E-03
0.54974214E-03
0.50532533E-03
0.46431110E-03
0.42678154E-03
0.39252793E-03
0.36102618E-03
0.33230541E-03
0.30616467E-03
0.28195843E-03
0.25962721E-03
0.23905812E-03
0.22019315E-03
0.20297701E-03
0.18722175E-03
0.17262292E-03
0.15916071E-03
0.14675157E-03
0.13519851E-03
0.12466006E-03
0.11488849E-03
0.10581574E-03
0.97523836E-04
0.89842251E-04
0.82732266E-04
0.76228796E-04
0.70154776E-04
0.64525935E-04
0.59346836E-04
