atomic number =    8
effective nuclear charge =    8
electron count =    2
net charge =    6
basis set = approximate basis set limit (UGBS)      
exchange correlation functional = PW91PW91            
cutoff radius (picometer) =  500
number of shells =  100
prepared by = Thomas A. Manz      
prepared date = May 2010            
net magnetization =    0
density in atomic units:
0.30756732E+03
0.34904030E+02
0.75950193E+01
0.17217628E+01
0.40129036E+00
0.11493288E+00
0.31892989E-01
0.81261396E-02
0.21707241E-02
0.59298391E-03
0.15789719E-03
0.44736185E-04
0.12332595E-04
0.32216562E-05
0.91909590E-06
0.27860870E-06
0.82465178E-07
0.25674407E-07
0.80719280E-08
0.22804509E-08
0.55506971E-09
0.96939456E-10
0.61218175E-11
0.90038532E-11
0.18559938E-10
0.18786504E-10
0.12837066E-10
0.62477475E-11
0.18829432E-11
0.49891336E-12
0.12799490E-11
0.30759152E-11
0.48253276E-11
0.59422298E-11
0.62344201E-11
0.57718535E-11
0.47903678E-11
0.35806089E-11
0.24056829E-11
0.14067481E-11
0.68379422E-12
0.25160950E-12
0.75984812E-13
0.96850479E-13
0.23847371E-12
0.44312492E-12
0.64955349E-12
0.81848081E-12
0.93495773E-12
0.98827825E-12
0.98040835E-12
0.92062349E-12
0.82404542E-12
0.70507912E-12
0.57585024E-12
0.44744102E-12
0.32842994E-12
0.22594818E-12
0.14347155E-12
0.82138892E-13
0.40417065E-13
0.16689700E-13
0.81369593E-14
0.11398814E-13
0.23310005E-13
0.40394557E-13
0.60231930E-13
0.80790816E-13
0.10001512E-12
0.11663768E-12
0.12961225E-12
0.13868292E-12
0.14381732E-12
0.14506511E-12
0.14287626E-12
0.13763281E-12
0.12992138E-12
0.12028041E-12
0.10936088E-12
0.97748937E-13
0.85708032E-13
0.73719283E-13
0.62139225E-13
0.51301509E-13
0.41478502E-13
0.32748452E-13
0.25084213E-13
0.18586151E-13
0.13204498E-13
0.88709346E-14
0.56060321E-14
0.32595634E-14
0.17273800E-14
0.93251318E-15
0.75003756E-15
0.10687435E-14
0.17837112E-14
0.28083769E-14
0.40578409E-14
0.54388943E-14
atomic number =    8
effective nuclear charge =    8
electron count =    4
net charge =    4
basis set = approximate basis set limit (UGBS)      
exchange correlation functional = PW91PW91            
cutoff radius (picometer) =  500
number of shells =  100
prepared by = Thomas A. Manz      
prepared date = May 2010            
net magnetization =    0
density in atomic units:
0.32429706E+03
0.36258793E+02
0.76614308E+01
0.17875322E+01
0.59909731E+00
0.38122845E+00
0.31340000E+00
0.26759633E+00
0.22417909E+00
0.18088047E+00
0.14189674E+00
0.11046862E+00
0.83960719E-01
0.62682562E-01
0.47265492E-01
0.35548083E-01
0.26288951E-01
0.19524679E-01
0.14484206E-01
0.10641838E-01
0.78696320E-02
0.58607659E-02
0.43330789E-02
0.32010241E-02
0.23782947E-02
0.17643273E-02
0.13082103E-02
0.97595464E-03
0.72519021E-03
0.54048240E-03
0.40469854E-03
0.30191109E-03
0.22614683E-03
0.16987970E-03
0.12768415E-03
0.95784526E-04
0.71828450E-04
0.53952706E-04
0.40729185E-04
0.30705403E-04
0.23161763E-04
0.17493394E-04
0.13196945E-04
0.10027485E-04
0.76161823E-05
0.57457246E-05
0.43476043E-05
0.33093932E-05
0.25088916E-05
0.19015897E-05
0.14410888E-05
0.10897489E-05
0.82686853E-06
0.62875381E-06
0.47741054E-06
0.36195524E-06
0.27374722E-06
0.20704209E-06
0.15667997E-06
0.11868269E-06
0.89798355E-07
0.67886511E-07
0.51372801E-07
0.38822467E-07
0.29297974E-07
0.22185791E-07
0.16786611E-07
0.12643723E-07
0.95170503E-08
0.71484596E-08
0.53827587E-08
0.40517238E-08
0.30429121E-08
0.22883178E-08
0.17158108E-08
0.12860332E-08
0.96491870E-09
0.72405459E-09
0.54486043E-09
0.41211431E-09
0.31205488E-09
0.23720595E-09
0.18133771E-09
0.13977067E-09
0.10898039E-09
0.85943488E-10
0.68370178E-10
0.55089780E-10
0.44790970E-10
0.36698748E-10
0.30424458E-10
0.25414330E-10
0.21304493E-10
0.17983554E-10
0.15265574E-10
0.12988282E-10
0.11120955E-10
0.95580557E-11
0.82582422E-11
0.71949803E-11
