atomic number =    8
effective nuclear charge =    8
electron count =    5
net charge =    3
basis set = approximate basis set limit (UGBS)      
exchange correlation functional = PW91PW91            
cutoff radius (picometer) =  500
number of shells =  100
prepared by = Thomas A. Manz      
prepared date = July 2010           
magnetization =    1
density in atomic units:
0.32879401E+03
0.36807907E+02
0.79495349E+01
0.20893021E+01
0.90371317E+00
0.65786600E+00
0.54240793E+00
0.44177362E+00
0.35093784E+00
0.26889297E+00
0.20102429E+00
0.15019912E+00
0.11007135E+00
0.79700977E-01
0.58808170E-01
0.43604739E-01
0.32005880E-01
0.23762885E-01
0.17736057E-01
0.13188945E-01
0.99167349E-02
0.75343880E-02
0.57039633E-02
0.43263095E-02
0.33055800E-02
0.25269720E-02
0.19342932E-02
0.14911841E-02
0.11474779E-02
0.88695873E-03
0.68957760E-03
0.53532852E-03
0.41779535E-03
0.32745491E-03
0.25722472E-03
0.20217405E-03
0.15918564E-03
0.12568351E-03
0.99879340E-04
0.79444872E-04
0.63329673E-04
0.50599825E-04
0.40463459E-04
0.32541157E-04
0.26181964E-04
0.21000735E-04
0.16922113E-04
0.13716494E-04
0.11065910E-04
0.89207670E-05
0.72372959E-05
0.59516756E-05
0.49345599E-05
0.40947243E-05
0.33874853E-05
0.28092547E-05
0.23288330E-05
0.19307613E-05
0.16082079E-05
0.13378860E-05
0.11071696E-05
0.91716498E-06
0.75569864E-06
0.62195210E-06
0.51299401E-06
0.42346514E-06
0.34793933E-06
0.28465968E-06
0.23217839E-06
0.18846821E-06
0.15317586E-06
0.12426638E-06
0.10022679E-06
0.80877655E-07
0.64993273E-07
0.51988263E-07
0.41878017E-07
0.33303785E-07
0.26676018E-07
0.21454927E-07
0.17087549E-07
0.13783691E-07
0.10968493E-07
0.88112264E-08
0.70941413E-08
0.57523644E-08
0.46722284E-08
0.38553334E-08
0.31683485E-08
0.25796456E-08
0.21150357E-08
0.17271912E-08
0.13986198E-08
0.11370879E-08
0.93018326E-09
0.75873008E-09
0.62542704E-09
0.51574639E-09
0.42623027E-09
0.35397135E-09
atomic number =    8
effective nuclear charge =    8
electron count =    6
net charge =    2
basis set = approximate basis set limit (UGBS)      
exchange correlation functional = PW91PW91            
cutoff radius (picometer) =  500
number of shells =  100
prepared by = Thomas A. Manz      
prepared date = July 2010           
magnetization =    2
density in atomic units:
0.32696799E+03
0.36802528E+02
0.81525116E+01
0.23050330E+01
0.10912222E+01
0.81597364E+00
0.67293763E+00
0.54785043E+00
0.43759415E+00
0.33898851E+00
0.25716802E+00
0.19525881E+00
0.14563121E+00
0.10739645E+00
0.80585301E-01
0.60697448E-01
0.45244090E-01
0.34066774E-01
0.25760069E-01
0.19400995E-01
0.14762624E-01
0.11344614E-01
0.86883493E-02
0.66671837E-02
0.51536937E-02
0.39867838E-02
0.30890058E-02
0.24104659E-02
0.18782311E-02
0.14700891E-02
0.11571575E-02
0.90979208E-03
0.71901479E-03
0.57056523E-03
0.45377537E-03
0.36100653E-03
0.28759468E-03
0.22981678E-03
0.18473275E-03
0.14858853E-03
0.11976299E-03
0.96732845E-04
0.78165409E-04
0.63561376E-04
0.51727915E-04
0.41938467E-04
0.34103843E-04
0.27865919E-04
0.22676168E-04
0.18443969E-04
0.15009879E-04
0.12185938E-04
0.99135805E-05
0.80789805E-05
0.65756403E-05
0.53503350E-05
0.43479085E-05
0.35288213E-05
0.28695263E-05
0.23311084E-05
0.18837885E-05
0.15191789E-05
0.12272225E-05
0.99016779E-06
0.79891709E-06
0.64511568E-06
0.51730979E-06
0.41295215E-06
0.32812474E-06
0.26121526E-06
0.20761449E-06
0.16467045E-06
0.13002369E-06
0.10318094E-06
0.81652125E-07
0.64133147E-07
0.50460514E-07
0.39555964E-07
0.30933570E-07
0.24160885E-07
0.18858742E-07
0.14547122E-07
0.11248663E-07
0.86740970E-08
0.67172614E-08
0.53437428E-08
0.43338400E-08
0.34370184E-08
0.26986309E-08
0.21018685E-08
0.16277786E-08
0.12591017E-08
0.97170416E-09
0.74934298E-09
0.57974331E-09
0.44833870E-09
0.34844364E-09
0.27081323E-09
0.21262730E-09
0.16526290E-09
atomic number =    8
effective nuclear charge =    8
electron count =    7
net charge =    1
basis set = approximate basis set limit (UGBS)      
exchange correlation functional = PW91PW91            
cutoff radius (picometer) =  500
number of shells =  100
prepared by = Thomas A. Manz      
prepared date = July 2010           
magnetization =    3
density in atomic units:
0.32539801E+03
0.36783287E+02
0.83079596E+01
0.24736235E+01
0.12405126E+01
0.94485682E+00
0.78262824E+00
0.64044327E+00
0.51622599E+00
0.40512651E+00
0.31217751E+00
0.24088480E+00
0.18274628E+00
0.13709609E+00
0.10444449E+00
0.79757877E-01
0.60224667E-01
0.45855448E-01
0.35014015E-01
0.26603164E-01
0.20397818E-01
0.15779633E-01
0.12160514E-01
0.93859071E-02
0.72946604E-02
0.56724851E-02
0.44173114E-02
0.34634136E-02
0.27112686E-02
0.21314721E-02
0.16847678E-02
0.13298586E-02
0.10547920E-02
0.83980011E-03
0.66997885E-03
0.53443445E-03
0.42684990E-03
0.34186596E-03
0.27525175E-03
0.22170342E-03
0.17890535E-03
0.14465927E-03
0.11696810E-03
0.95186108E-04
0.77493758E-04
0.62825267E-04
0.51071402E-04
0.41744144E-04
0.34037599E-04
0.27732465E-04
0.22588883E-04
0.18357039E-04
0.14970356E-04
0.12227720E-04
0.99555336E-05
0.80995933E-05
0.65782651E-05
0.53369686E-05
0.43326686E-05
0.35154476E-05
0.28391244E-05
0.22847698E-05
0.18413468E-05
0.14833151E-05
0.11908268E-05
0.96160431E-06
0.77512021E-06
0.62115981E-06
0.49732711E-06
0.39709090E-06
0.31700546E-06
0.25295407E-06
0.20103614E-06
0.15970558E-06
0.12623394E-06
0.99258500E-07
0.78257287E-07
0.61310047E-07
0.47915041E-07
0.37479289E-07
0.29203623E-07
0.22609649E-07
0.17441504E-07
0.13445626E-07
0.10314302E-07
0.79156814E-08
0.60458025E-08
0.49439675E-08
0.41644057E-08
0.32760563E-08
0.25725688E-08
0.20127722E-08
0.15763125E-08
0.12275898E-08
0.96393959E-09
0.75485757E-09
0.59041144E-09
0.46117751E-09
0.36552847E-09
0.28595185E-09
atomic number =    8
effective nuclear charge =    8
electron count =    8
net charge =    0
basis set = approximate basis set limit (UGBS)      
exchange correlation functional = PW91PW91            
cutoff radius (picometer) =  500
number of shells =  100
prepared by = Thomas A. Manz      
prepared date = July 2010           
magnetization =    2
density in atomic units:
0.32429501E+03
0.36766212E+02
0.84117203E+01
0.25865593E+01
0.13420144E+01
0.10350873E+01
0.86271495E+00
0.71172863E+00
0.58002943E+00
0.46163553E+00
0.36156452E+00
0.28364888E+00
0.21897556E+00
0.16720062E+00
0.12941010E+00
0.10027298E+00
0.76786458E-01
0.59202902E-01
0.45721702E-01
0.35114121E-01
0.27188674E-01
0.21224333E-01
0.16505539E-01
0.12855553E-01
0.10080757E-01
0.79110535E-02
0.62189871E-02
0.49226033E-02
0.38918494E-02
0.30905651E-02
0.24677136E-02
0.19685640E-02
0.15780482E-02
0.12699183E-02
0.10240556E-02
0.82587119E-03
0.66687056E-03
0.53991878E-03
0.43939287E-03
0.35768532E-03
0.29170301E-03
0.23837114E-03
0.19480892E-03
0.16017731E-03
0.13175636E-03
0.10794055E-03
0.88684850E-04
0.73213159E-04
0.60296934E-04
0.49660608E-04
0.40892017E-04
0.33625336E-04
0.27714812E-04
0.22874550E-04
0.18864119E-04
0.15528009E-04
0.12777254E-04
0.10494977E-04
0.86290584E-05
0.70994520E-05
0.58269547E-05
0.47750482E-05
0.39169950E-05
0.32058288E-05
0.26129335E-05
0.21244362E-05
0.17217050E-05
0.13907521E-05
0.11229430E-05
0.90555369E-06
0.72995346E-06
0.58750646E-06
0.46683479E-06
0.37166782E-06
0.29530204E-06
0.23382024E-06
0.18487849E-06
0.14603924E-06
0.11504089E-06
0.90482288E-07
0.71226424E-07
0.55593734E-07
0.43447411E-07
0.33843808E-07
0.26374385E-07
0.20578986E-07
0.16072747E-07
0.12422167E-07
0.96401100E-08
0.74409465E-08
0.57463554E-08
0.44448516E-08
0.35812067E-08
0.28682230E-08
0.22667976E-08
0.17727205E-08
0.13790533E-08
0.10683761E-08
0.81894047E-09
0.63666894E-09
atomic number =    8
effective nuclear charge =    8
electron count =    9
net charge =   -1
basis set = approximate basis set limit (UGBS)      
exchange correlation functional = PW91PW91            
cutoff radius (picometer) =  500
number of shells =  100
prepared by = Thomas A. Manz      
prepared date = July 2010           
magnetization =    1
density in atomic units:
0.32335901E+03
0.36703991E+02
0.84299669E+01
0.26073239E+01
0.13559281E+01
0.10453475E+01
0.87233770E+00
0.72276473E+00
0.59307253E+00
0.47647867E+00
0.37762302E+00
0.30025825E+00
0.23562635E+00
0.18346977E+00
0.14503179E+00
0.11505607E+00
0.90557970E-01
0.71910486E-01
0.57332739E-01
0.45600560E-01
0.36609959E-01
0.29649844E-01
0.23974499E-01
0.19438537E-01
0.15867647E-01
0.12972503E-01
0.10628305E-01
0.87622181E-02
0.72190189E-02
0.59709237E-02
0.49599912E-02
0.41181934E-02
0.34318226E-02
0.28684747E-02
0.24014483E-02
0.20097194E-02
0.16833760E-02
0.14127466E-02
0.11902982E-02
0.10026650E-02
0.84593386E-03
0.71453705E-03
0.60364034E-03
0.51270716E-03
0.43553897E-03
0.36887836E-03
0.31334764E-03
0.26726778E-03
0.22770534E-03
0.19418485E-03
0.16573010E-03
0.14143258E-03
0.12107893E-03
0.10389806E-03
0.89173554E-04
0.76547578E-04
0.65678636E-04
0.56403071E-04
0.48497812E-04
0.41754167E-04
0.35951565E-04
0.30968808E-04
0.26706162E-04
0.23023314E-04
0.19840454E-04
0.17140630E-04
0.14807740E-04
0.12764941E-04
0.11002537E-04
0.94996749E-05
0.83097066E-05
0.72784005E-05
0.63671578E-05
0.55603164E-05
0.48516781E-05
0.42352813E-05
0.36974891E-05
0.32204264E-05
0.28118827E-05
0.24547849E-05
0.21375620E-05
0.18624000E-05
0.16179285E-05
0.14075453E-05
0.12215445E-05
0.10666871E-05
0.92580467E-06
0.80486592E-06
0.70015693E-06
0.60566509E-06
0.52602996E-06
0.45675779E-06
0.39374731E-06
0.34188858E-06
0.29594378E-06
0.25529084E-06
0.22070799E-06
0.19034746E-06
0.16428488E-06
0.14146993E-06
atomic number =    8
effective nuclear charge =    8
electron count =   10
net charge =   -2
basis set = approximate basis set limit (UGBS)      
exchange correlation functional = PW91PW91            
cutoff radius (picometer) =  500
number of shells =  100
prepared by = Thomas A. Manz      
prepared date = July 2010           
magnetization =    0
density in atomic units:
0.32263000E+03
0.36653275E+02
0.84412546E+01
0.26207197E+01
0.13642824E+01
0.10510478E+01
0.87785268E+00
0.72969019E+00
0.60192090E+00
0.48712537E+00
0.38954020E+00
0.31293336E+00
0.24865335E+00
0.19652230E+00
0.15787323E+00
0.12749901E+00
0.10244689E+00
0.83150245E-01
0.67843057E-01
0.55316333E-01
0.45526102E-01
0.37784822E-01
0.31327590E-01
0.26037008E-01
0.21767516E-01
0.18215902E-01
0.15266340E-01
0.12856748E-01
0.10814888E-01
0.91229416E-02
0.77215484E-02
0.65261731E-02
0.55319048E-02
0.46989978E-02
0.39942828E-02
0.33926109E-02
0.28821803E-02
0.24514564E-02
0.20918488E-02
0.17840063E-02
0.15228541E-02
0.13012137E-02
0.11118571E-02
0.95441012E-03
0.81954815E-03
0.70167880E-03
0.60235296E-03
0.51926449E-03
0.44713210E-03
0.38544700E-03
0.33263021E-03
0.28704293E-03
0.24845963E-03
0.21557722E-03
0.18716531E-03
0.16259782E-03
0.14126197E-03
0.12288844E-03
0.10705855E-03
0.93405608E-04
0.81524384E-04
0.71191964E-04
0.62260791E-04
0.54459313E-04
0.47642316E-04
0.41782696E-04
0.36652888E-04
0.32110598E-04
0.28127364E-04
0.24629666E-04
0.21586520E-04
0.18924542E-04
0.16582411E-04
0.14541056E-04
0.12729682E-04
0.11129806E-04
0.97284128E-05
0.85015063E-05
0.74284208E-05
0.64944702E-05
0.56712638E-05
0.49434138E-05
0.43059167E-05
0.37482689E-05
0.32590160E-05
0.28230631E-05
0.24470339E-05
0.21191424E-05
0.18361579E-05
0.15879979E-05
0.13745397E-05
0.11900038E-05
0.10304021E-05
0.89193202E-06
0.77162838E-06
0.66651495E-06
0.57589443E-06
0.49695507E-06
0.42747993E-06
0.36841891E-06
atomic number =    8
effective nuclear charge =    8
electron count =   11
net charge =   -3
basis set = approximate basis set limit (UGBS)      
exchange correlation functional = PW91PW91            
cutoff radius (picometer) =  500
number of shells =  100
prepared by = Thomas A. Manz      
prepared date = July 2010           
magnetization =    1
density in atomic units:
0.32310999E+03
0.36682205E+02
0.84276476E+01
0.26058922E+01
0.13537838E+01
0.10437814E+01
0.87249637E+00
0.72497874E+00
0.59718257E+00
0.48226488E+00
0.38469422E+00
0.30824116E+00
0.24422212E+00
0.19240963E+00
0.15409254E+00
0.12407884E+00
0.99431291E-01
0.80558881E-01
0.65699294E-01
0.53646185E-01
0.44312298E-01
0.37004694E-01
0.30962432E-01
0.26050959E-01
0.22110116E-01
0.18843643E-01
0.16131574E-01
0.13910518E-01
0.12017242E-01
0.10434180E-01
0.91067869E-02
0.79580685E-02
0.69854590E-02
0.61543789E-02
0.54359841E-02
0.48081982E-02
0.42616841E-02
0.37883315E-02
0.33819284E-02
0.30238333E-02
0.27105650E-02
0.24364137E-02
0.21942516E-02
0.19860319E-02
0.18013774E-02
0.16340344E-02
0.14874416E-02
0.13599449E-02
0.12447656E-02
0.11420402E-02
0.10501558E-02
0.96722704E-03
0.89379551E-03
0.82814338E-03
0.76847611E-03
0.71426970E-03
0.66470401E-03
0.61962800E-03
0.57865592E-03
0.54132269E-03
0.50700444E-03
0.47540281E-03
0.44641539E-03
0.41953410E-03
0.39456695E-03
0.37172681E-03
0.35043730E-03
0.33035188E-03
0.31159000E-03
0.29395625E-03
0.27763279E-03
0.26229053E-03
0.24781507E-03
0.23425285E-03
0.22134167E-03
0.20913694E-03
0.19760094E-03
0.18664988E-03
0.17631147E-03
0.16659008E-03
0.15727273E-03
0.14837879E-03
0.13990820E-03
0.13187638E-03
0.12430936E-03
0.11714311E-03
0.11028699E-03
0.10377653E-03
0.97577904E-04
0.91631468E-04
0.86048378E-04
0.80719758E-04
0.75628202E-04
0.70835129E-04
0.66269153E-04
0.61945291E-04
0.57894747E-04
0.54039476E-04
0.50383402E-04
0.46962923E-04
