atomic number =   15
effective nuclear charge =   15
electron count =    9
net charge =    6
basis set = approximate basis set limit (UGBS)      
exchange correlation functional = PW91PW91            
cutoff radius (picometer) =  500
number of shells =  100
prepared by = Thomas A. Manz      
prepared date = July 2010           
magnetization =    1
density in atomic units:
0.23562500E+04
0.57155708E+02
0.16183605E+02
0.98087683E+01
0.56408806E+01
0.32015924E+01
0.16848458E+01
0.82145005E+00
0.40227398E+00
0.19362769E+00
0.91169998E-01
0.44090405E-01
0.20731032E-01
0.94542997E-02
0.44939108E-02
0.21535603E-02
0.98921813E-03
0.45807712E-03
0.21188393E-03
0.95249576E-04
0.43436841E-04
0.20270178E-04
0.92913042E-05
0.42386278E-05
0.19629385E-05
0.91278287E-06
0.42541441E-06
0.19934130E-06
0.92273091E-07
0.43002682E-07
0.21917776E-07
0.11186965E-07
0.63037100E-08
0.36022403E-08
0.20000195E-08
0.10894241E-08
0.63269051E-09
0.36421194E-09
0.19703839E-09
0.10539334E-09
0.55480603E-10
0.28232527E-10
0.14074705E-10
0.71294307E-11
0.34194676E-11
0.16205092E-11
0.74168666E-12
0.32634269E-12
0.15065991E-12
0.64601529E-13
0.28332227E-13
0.11618056E-13
0.48370744E-14
0.19662273E-14
0.78077496E-15
0.30469766E-15
0.11826349E-15
0.43523673E-16
0.16266316E-16
0.60278860E-17
0.22259271E-17
0.81348121E-18
0.30518526E-18
0.12373960E-18
0.49079679E-19
0.19928883E-19
0.87409589E-20
0.34336623E-20
0.14918524E-20
0.60244209E-21
0.23722075E-21
0.10019808E-21
0.36219043E-22
0.14377979E-22
0.56183013E-23
0.20097448E-23
0.81775205E-24
0.41916257E-24
0.14152470E-24
0.51337259E-25
0.18726003E-25
0.58443943E-26
0.19404451E-26
0.65580414E-27
0.19721016E-27
0.58292585E-28
0.18758407E-28
0.56722748E-29
0.16853339E-29
0.49672183E-30
0.13860016E-30
0.41396447E-31
0.11875640E-31
0.31236845E-32
0.10126993E-32
0.65469525E-33
0.19294590E-33
0.54244507E-34
0.14795105E-34
0.38176651E-35
atomic number =   15
effective nuclear charge =   15
electron count =   10
net charge =    5
basis set = approximate basis set limit (UGBS)      
exchange correlation functional = PW91PW91            
cutoff radius (picometer) =  500
number of shells =  100
prepared by = Thomas A. Manz      
prepared date = July 2010           
magnetization =    0
density in atomic units:
0.23451899E+04
0.58554245E+02
0.17412544E+02
0.10665527E+02
0.62374802E+01
0.36238644E+01
0.19674650E+01
0.99786872E+00
0.51011992E+00
0.25712374E+00
0.12735943E+00
0.64831629E-01
0.32199714E-01
0.15585901E-01
0.78515243E-02
0.39871973E-02
0.19502218E-02
0.96257374E-03
0.47475373E-03
0.22795840E-03
0.11073093E-03
0.54642125E-04
0.26365231E-04
0.12505444E-04
0.59100298E-05
0.27209301E-05
0.12126951E-05
0.51370978E-06
0.19864876E-06
0.11950756E-06
0.61724698E-07
0.34926266E-07
0.20838762E-07
0.12933588E-07
0.87668539E-08
0.49631264E-08
0.33090612E-08
0.21261395E-08
0.12037568E-08
0.63498296E-09
0.33196107E-09
0.17195645E-09
0.84130848E-10
0.41626626E-10
0.20304192E-10
0.92209617E-11
0.42380656E-11
0.19386270E-11
0.86197222E-12
0.37381093E-12
0.15829857E-12
0.66332993E-13
0.27668048E-13
0.11178565E-13
0.44230485E-14
0.17267017E-14
0.65576756E-15
0.24568543E-15
0.88959483E-16
0.32536623E-16
0.11573938E-16
0.40378615E-17
0.14192771E-17
0.46904563E-18
0.15402188E-18
0.50755680E-19
0.16920010E-19
0.53801071E-20
0.16835394E-20
0.50760188E-21
0.15077830E-21
0.43277026E-22
0.12434246E-22
0.37266523E-23
0.10222809E-23
0.27323866E-24
0.75602241E-25
0.20190872E-25
0.53287889E-26
0.13959177E-26
0.35153855E-27
0.91453415E-28
0.21985930E-28
0.52159284E-29
0.12086556E-29
0.28891744E-30
0.66714723E-31
0.15165376E-31
0.34084539E-32
0.73946327E-33
0.16612687E-33
0.34814406E-34
0.70136167E-35
0.14311166E-35
0.28221185E-36
0.58746484E-37
0.45130605E-37
0.16534037E-37
0.00000000E+00
0.00000000E+00
atomic number =   15
effective nuclear charge =   15
electron count =   11
net charge =    4
basis set = approximate basis set limit (UGBS)      
exchange correlation functional = PW91PW91            
cutoff radius (picometer) =  500
number of shells =  100
prepared by = Thomas A. Manz      
prepared date = July 2010           
magnetization =    1
density in atomic units:
0.23536299E+04
0.58493816E+02
0.17456467E+02
0.10739730E+02
0.62753968E+01
0.36357036E+01
0.19707935E+01
0.10056370E+01
0.52689683E+00
0.28266564E+00
0.15905371E+00
0.99450879E-01
0.67124583E-01
0.48735164E-01
0.38077682E-01
0.30678226E-01
0.24776177E-01
0.20156363E-01
0.16358921E-01
0.13142793E-01
0.10566264E-01
0.85074445E-02
0.67938166E-02
0.54098498E-02
0.43196878E-02
0.34416441E-02
0.27397131E-02
0.21907869E-02
0.17468435E-02
0.13968956E-02
0.11217414E-02
0.89912338E-03
0.72363584E-03
0.58425206E-03
0.47246116E-03
0.38189857E-03
0.30896335E-03
0.25048995E-03
0.20399048E-03
0.16602315E-03
0.13524503E-03
0.11027673E-03
0.89865716E-04
0.73613279E-04
0.60247967E-04
0.49040449E-04
0.39980114E-04
0.32700227E-04
0.26635822E-04
0.21674214E-04
0.17609626E-04
0.14277184E-04
0.11605100E-04
0.94411989E-05
0.76603355E-05
0.62014578E-05
0.50026883E-05
0.40274545E-05
0.32122484E-05
0.25532129E-05
0.20222265E-05
0.15981370E-05
0.12601394E-05
0.99790577E-06
0.79605559E-06
0.63388143E-06
0.50147946E-06
0.39424415E-06
0.30804222E-06
0.24172212E-06
0.20808220E-06
0.16487655E-06
0.12900894E-06
0.10115198E-06
0.79160117E-07
0.61640058E-07
0.47999659E-07
0.37372335E-07
0.28953464E-07
0.22460920E-07
0.17370148E-07
0.20100719E-07
0.18475944E-07
0.15340754E-07
0.12739278E-07
0.10710402E-07
0.89565075E-08
0.75597741E-08
0.63620962E-08
0.53971316E-08
0.45487374E-08
0.38734900E-08
0.32651213E-08
0.27634763E-08
0.23441959E-08
0.19806337E-08
0.16810152E-08
0.14206579E-08
0.12022578E-08
0.10085559E-08
atomic number =   15
effective nuclear charge =   15
electron count =   12
net charge =    3
basis set = approximate basis set limit (UGBS)      
exchange correlation functional = PW91PW91            
cutoff radius (picometer) =  500
number of shells =  100
prepared by = Thomas A. Manz      
prepared date = July 2010           
magnetization =    0
density in atomic units:
0.23606799E+04
0.58444485E+02
0.17493795E+02
0.10803307E+02
0.63090067E+01
0.36469853E+01
0.19739298E+01
0.10115082E+01
0.53977972E+00
0.30283028E+00
0.18470295E+00
0.12813044E+00
0.96819170E-01
0.77739194E-01
0.65300643E-01
0.55452224E-01
0.46656433E-01
0.39140727E-01
0.32554191E-01
0.26703866E-01
0.21839907E-01
0.17834850E-01
0.14418211E-01
0.11599712E-01
0.93392003E-02
0.74906400E-02
0.59942272E-02
0.48119095E-02
0.38481390E-02
0.30836104E-02
0.24797032E-02
0.19895399E-02
0.16023220E-02
0.12942950E-02
0.10470367E-02
0.84663497E-03
0.68521645E-03
0.55579335E-03
0.45285764E-03
0.36885019E-03
0.30073099E-03
0.24547716E-03
0.20022443E-03
0.16416311E-03
0.13452502E-03
0.10966956E-03
0.89556888E-04
0.73382012E-04
0.59903796E-04
0.48846021E-04
0.39765589E-04
0.32276421E-04
0.26210510E-04
0.21308690E-04
0.17281844E-04
0.13981617E-04
0.11270294E-04
0.90670601E-05
0.72816679E-05
0.58396208E-05
0.46575974E-05
0.37010282E-05
0.29372754E-05
0.23216560E-05
0.18295677E-05
0.14356942E-05
0.11113525E-05
0.85499556E-06
0.65325378E-06
0.53457956E-06
0.41354312E-06
0.31765126E-06
0.24225807E-06
0.18372472E-06
0.13778292E-06
0.10205010E-06
0.74473562E-07
0.53495153E-07
0.37081744E-07
0.24844205E-07
0.32130142E-07
0.45874863E-07
0.37926032E-07
0.31345007E-07
0.26481414E-07
0.22334575E-07
0.18755433E-07
0.15968576E-07
0.13583104E-07
0.11529830E-07
0.98615711E-08
0.84309058E-08
0.71863302E-08
0.61295546E-08
0.52299343E-08
0.44593951E-08
0.37930437E-08
0.32224448E-08
0.27512612E-08
0.23203230E-08
atomic number =   15
effective nuclear charge =   15
electron count =   13
net charge =    2
basis set = approximate basis set limit (UGBS)      
exchange correlation functional = PW91PW91            
cutoff radius (picometer) =  500
number of shells =  100
prepared by = Thomas A. Manz      
prepared date = July 2010           
magnetization =    1
density in atomic units:
0.23590300E+04
0.58553715E+02
0.17562475E+02
0.10828671E+02
0.63171549E+01
0.36498797E+01
0.19757735E+01
0.10145996E+01
0.54506850E+00
0.31062329E+00
0.19482499E+00
0.14009996E+00
0.11020180E+00
0.92002325E-01
0.79885468E-01
0.69911815E-01
0.60612544E-01
0.52328400E-01
0.44782750E-01
0.37843864E-01
0.31878609E-01
0.26812010E-01
0.22356147E-01
0.18566135E-01
0.15434105E-01
0.12793857E-01
0.10590329E-01
0.87939817E-02
0.72827530E-02
0.60444130E-02
0.50342358E-02
0.41858088E-02
0.34932080E-02
0.29235182E-02
0.24502950E-02
0.20538580E-02
0.17233933E-02
0.14493003E-02
0.12240335E-02
0.10341600E-02
0.87498542E-03
0.74169022E-03
0.62900293E-03
0.53618749E-03
0.45747514E-03
0.38920043E-03
0.33206859E-03
0.28459978E-03
0.24362240E-03
0.20877269E-03
0.17910873E-03
0.15363701E-03
0.13222935E-03
0.11409265E-03
0.98470409E-04
0.85020547E-04
0.73385490E-04
0.63387954E-04
0.54828553E-04
0.47479909E-04
0.41122647E-04
0.35620080E-04
0.30864332E-04
0.26728527E-04
0.23134620E-04
0.20060683E-04
0.17403343E-04
0.15093820E-04
0.13110562E-04
0.11397323E-04
0.99391737E-05
0.86893460E-05
0.76057245E-05
0.66513248E-05
0.58041023E-05
0.50674630E-05
0.44193289E-05
0.38525172E-05
0.33598042E-05
0.29310984E-05
0.25477773E-05
0.22046966E-05
0.19074439E-05
0.16630781E-05
0.14558000E-05
0.12724779E-05
0.11144823E-05
0.97373652E-06
0.84767294E-06
0.73874207E-06
0.64341589E-06
0.55995986E-06
0.48757516E-06
0.42449508E-06
0.36830295E-06
0.32039429E-06
0.27774192E-06
0.24058477E-06
0.20852391E-06
0.18027087E-06
atomic number =   15
effective nuclear charge =   15
electron count =   14
net charge =    1
basis set = approximate basis set limit (UGBS)      
exchange correlation functional = PW91PW91            
cutoff radius (picometer) =  500
number of shells =  100
prepared by = Thomas A. Manz      
prepared date = July 2010           
magnetization =    2
density in atomic units:
0.23576001E+04
0.58649860E+02
0.17623919E+02
0.10852264E+02
0.63252482E+01
0.36529179E+01
0.19774731E+01
0.10170983E+01
0.54938030E+00
0.31715152E+00
0.20351580E+00
0.15057702E+00
0.12213890E+00
0.10496981E+00
0.93382306E-01
0.83545394E-01
0.74027091E-01
0.65241739E-01
0.56978755E-01
0.49148902E-01
0.42231388E-01
0.36197569E-01
0.30759625E-01
0.26022594E-01
0.22013957E-01
0.18558316E-01
0.15610297E-01
0.13156348E-01
0.11049504E-01
0.92898170E-02
0.78262603E-02
0.65778377E-02
0.55408538E-02
0.46753576E-02
0.39471006E-02
0.33288214E-02
0.28077345E-02
0.23713040E-02
0.20093240E-02
0.17015936E-02
0.14422677E-02
0.12236846E-02
0.10381369E-02
0.88491203E-03
0.75446069E-03
0.64114534E-03
0.54631609E-03
0.46742090E-03
0.39934527E-03
0.34153042E-03
0.29232915E-03
0.25018040E-03
0.21476070E-03
0.18471015E-03
0.15887620E-03
0.13668336E-03
0.11754164E-03
0.10116577E-03
0.87168046E-04
0.75193529E-04
0.64881620E-04
0.55995115E-04
0.48390510E-04
0.41804873E-04
0.36100304E-04
0.31260963E-04
0.27148008E-04
0.23539813E-04
0.20423624E-04
0.17793407E-04
0.15481772E-04
0.13478186E-04
0.11806214E-04
0.10342045E-04
0.90511066E-05
0.79264191E-05
0.69421740E-05
0.60667348E-05
0.53126487E-05
0.46524442E-05
0.40615391E-05
0.35473313E-05
0.30930726E-05
0.26965809E-05
0.23488037E-05
0.20524722E-05
0.17848006E-05
0.15546389E-05
0.13540832E-05
0.11749659E-05
0.10212636E-05
0.88755820E-06
0.76835227E-06
0.66701114E-06
0.57796365E-06
0.49986255E-06
0.43279772E-06
0.37358987E-06
0.32247675E-06
0.27800232E-06
atomic number =   15
effective nuclear charge =   15
electron count =   15
net charge =    0
basis set = approximate basis set limit (UGBS)      
exchange correlation functional = PW91PW91            
cutoff radius (picometer) =  500
number of shells =  100
prepared by = Thomas A. Manz      
prepared date = July 2010           
magnetization =    3
density in atomic units:
0.23563501E+04
0.58735592E+02
0.17679567E+02
0.10874459E+02
0.63333335E+01
0.36561069E+01
0.19790874E+01
0.10191414E+01
0.55292553E+00
0.32267877E+00
0.21104911E+00
0.15983327E+00
0.13287185E+00
0.11683562E+00
0.10594787E+00
0.96455000E-01
0.86961985E-01
0.77909805E-01
0.69136947E-01
0.60595725E-01
0.52855253E-01
0.45944002E-01
0.39575908E-01
0.33909492E-01
0.29018803E-01
0.24723360E-01
0.20994509E-01
0.17840944E-01
0.15093420E-01
0.12767495E-01
0.10810327E-01
0.91225933E-02
0.77076484E-02
0.65171751E-02
0.55081975E-02
0.46470091E-02
0.39175116E-02
0.33043050E-02
0.27944976E-02
0.23605397E-02
0.19944739E-02
0.16861638E-02
0.14245468E-02
0.12088168E-02
0.10256096E-02
0.86697313E-03
0.73458854E-03
0.62493281E-03
0.53069962E-03
0.45101793E-03
0.38357984E-03
0.32610874E-03
0.27810782E-03
0.23766777E-03
0.20316339E-03
0.17371404E-03
0.14849870E-03
0.12708823E-03
0.10892691E-03
0.93488045E-04
0.80261096E-04
0.68938192E-04
0.59302754E-04
0.51025094E-04
0.43908429E-04
0.37890306E-04
0.32699918E-04
0.28169896E-04
0.24267230E-04
0.20880138E-04
0.18002011E-04
0.15532209E-04
0.13395958E-04
0.11568075E-04
0.99749350E-05
0.86003547E-05
0.74041404E-05
0.63732114E-05
0.54878305E-05
0.47293656E-05
0.40737445E-05
0.35044563E-05
0.30125491E-05
0.25902182E-05
0.22238023E-05
0.19058882E-05
0.16333935E-05
0.14011981E-05
0.12066938E-05
0.10368128E-05
0.89207310E-06
0.76803667E-06
0.65915572E-06
0.56691596E-06
0.48735177E-06
0.41758292E-06
0.35890989E-06
0.30797838E-06
0.26326342E-06
0.22581452E-06
atomic number =   15
effective nuclear charge =   15
electron count =   16
net charge =   -1
basis set = approximate basis set limit (UGBS)      
exchange correlation functional = PW91PW91            
cutoff radius (picometer) =  500
number of shells =  100
prepared by = Thomas A. Manz      
prepared date = July 2010           
magnetization =    2
density in atomic units:
0.23553899E+04
0.58761936E+02
0.17690584E+02
0.10874608E+02
0.63325119E+01
0.36560163E+01
0.19793460E+01
0.10192554E+01
0.55272347E+00
0.32227549E+00
0.21067417E+00
0.15971041E+00
0.13318527E+00
0.11768982E+00
0.10734622E+00
0.98380566E-01
0.89399807E-01
0.80792293E-01
0.72397515E-01
0.64177111E-01
0.56676231E-01
0.49935367E-01
0.43676466E-01
0.38056649E-01
0.33159379E-01
0.28808471E-01
0.24983454E-01
0.21700146E-01
0.18794373E-01
0.16290896E-01
0.14145670E-01
0.12255434E-01
0.10638034E-01
0.92456117E-02
0.80364048E-02
0.69787498E-02
0.60593067E-02
0.52651223E-02
0.45864899E-02
0.39926302E-02
0.34765014E-02
0.30293213E-02
0.26384550E-02
0.23059347E-02
0.20153401E-02
0.17556980E-02
0.15321551E-02
0.13414667E-02
0.11723737E-02
0.10249637E-02
0.89631439E-03
0.78331330E-03
0.68598922E-03
0.60158886E-03
0.52742218E-03
0.46225087E-03
0.40482506E-03
0.35468396E-03
0.31097088E-03
0.27285237E-03
0.23935181E-03
0.20994677E-03
0.18430021E-03
0.16176290E-03
0.14196064E-03
0.12484084E-03
0.10978670E-03
0.96398071E-04
0.84661515E-04
0.74305419E-04
0.65298256E-04
0.57412239E-04
0.50462779E-04
0.44410281E-04
0.39040729E-04
0.34322205E-04
0.30175739E-04
0.26523754E-04
0.23320532E-04
0.20521642E-04
0.18024470E-04
0.15808864E-04
0.13861457E-04
0.12162141E-04
0.10685829E-04
0.93859535E-05
0.82451897E-05
0.72402299E-05
0.63533430E-05
0.55632677E-05
0.48768038E-05
0.42631032E-05
0.37254324E-05
0.32596015E-05
0.28705917E-05
0.25318957E-05
0.22341610E-05
0.19727790E-05
0.17407798E-05
0.15367676E-05
atomic number =   15
effective nuclear charge =   15
electron count =   17
net charge =   -2
basis set = approximate basis set limit (UGBS)      
exchange correlation functional = PW91PW91            
cutoff radius (picometer) =  500
number of shells =  100
prepared by = Thomas A. Manz      
prepared date = July 2010           
magnetization =    1
density in atomic units:
0.23546599E+04
0.58780724E+02
0.17697914E+02
0.10874140E+02
0.63317013E+01
0.36558847E+01
0.19794898E+01
0.10192361E+01
0.55239207E+00
0.32172146E+00
0.21010318E+00
0.15931915E+00
0.13313600E+00
0.11808002E+00
0.10817978E+00
0.99653021E-01
0.91103390E-01
0.82879208E-01
0.74825801E-01
0.66906936E-01
0.59652742E-01
0.53104565E-01
0.46995297E-01
0.41478530E-01
0.36637653E-01
0.32302257E-01
0.28455039E-01
0.25117191E-01
0.22127282E-01
0.19516872E-01
0.17246431E-01
0.15215500E-01
0.13447925E-01
0.11899735E-01
0.10531243E-01
0.93115801E-02
0.82308864E-02
0.72790282E-02
0.64496910E-02
0.57094060E-02
0.50537880E-02
0.44741896E-02
0.39578206E-02
0.35104845E-02
0.31119725E-02
0.27494004E-02
0.24317303E-02
0.21557973E-02
0.19071077E-02
0.16867107E-02
0.14913196E-02
0.13170851E-02
0.11648651E-02
0.10310380E-02
0.91194990E-03
0.80602954E-03
0.71160507E-03
0.62822766E-03
0.55475574E-03
0.49009331E-03
0.43275722E-03
0.38201112E-03
0.33742090E-03
0.29791796E-03
0.26296018E-03
0.23255580E-03
0.20565120E-03
0.18158655E-03
0.16038341E-03
0.14162075E-03
0.12526249E-03
0.11083261E-03
0.98037439E-04
0.86820080E-04
0.76848781E-04
0.68040943E-04
0.60284190E-04
0.53424534E-04
0.47381542E-04
0.42079308E-04
0.37354985E-04
0.33151988E-04
0.29426079E-04
0.26134971E-04
0.23243825E-04
0.20684623E-04
0.18415720E-04
0.16404412E-04
0.14618498E-04
0.13015893E-04
0.11611905E-04
0.10357354E-04
0.92323653E-05
0.82317129E-05
0.73361593E-05
0.65407344E-05
0.58405139E-05
0.52129740E-05
0.46522282E-05
0.41562967E-05
atomic number =   15
effective nuclear charge =   15
electron count =   18
net charge =   -3
basis set = approximate basis set limit (UGBS)      
exchange correlation functional = PW91PW91            
cutoff radius (picometer) =  500
number of shells =  100
prepared by = Thomas A. Manz      
prepared date = July 2010           
magnetization =    0
density in atomic units:
0.23540100E+04
0.58797016E+02
0.17704165E+02
0.10873641E+02
0.63309956E+01
0.36557782E+01
0.19796000E+01
0.10191734E+01
0.55203474E+00
0.32115245E+00
0.20951238E+00
0.15889083E+00
0.13302188E+00
0.11836833E+00
0.10887121E+00
0.10074270E+00
0.92583857E-01
0.84708251E-01
0.76969229E-01
0.69335178E-01
0.62321454E-01
0.55968851E-01
0.50021328E-01
0.44626612E-01
0.39865725E-01
0.35573918E-01
0.31734787E-01
0.28373353E-01
0.25329350E-01
0.22640990E-01
0.20272613E-01
0.18125968E-01
0.16229883E-01
0.14544584E-01
0.13032628E-01
0.11664120E-01
0.10432540E-01
0.93313605E-02
0.83574755E-02
0.74745486E-02
0.66819969E-02
0.59704366E-02
0.53285374E-02
0.47650551E-02
0.42566140E-02
0.37886549E-02
0.33743007E-02
0.30101356E-02
0.26788437E-02
0.23824570E-02
0.21172841E-02
0.18789055E-02
0.16690952E-02
0.14832168E-02
0.13166656E-02
0.11676335E-02
0.10340643E-02
0.91549987E-03
0.81052666E-03
0.71778434E-03
0.63519244E-03
0.56189916E-03
0.49722928E-03
0.43975672E-03
0.38879961E-03
0.34434468E-03
0.30496297E-03
0.26969748E-03
0.23854554E-03
0.21096035E-03
0.18687938E-03
0.16563693E-03
0.14679639E-03
0.13027816E-03
0.11554329E-03
0.10254170E-03
0.91099326E-04
0.80966973E-04
0.72045354E-04
0.64210151E-04
0.57203906E-04
0.50965002E-04
0.45425921E-04
0.40521954E-04
0.36211004E-04
0.32395139E-04
0.28986871E-04
0.25952706E-04
0.23251374E-04
0.20822668E-04
0.18680121E-04
0.16757629E-04
0.15034082E-04
0.13503462E-04
0.12125795E-04
0.10886693E-04
0.97854654E-05
0.87940243E-05
0.79056254E-05
0.71120048E-05
atomic number =   15
effective nuclear charge =   15
electron count =   19
net charge =   -4
basis set = approximate basis set limit (UGBS)      
exchange correlation functional = PW91PW91            
cutoff radius (picometer) =  500
number of shells =  100
prepared by = Thomas A. Manz      
prepared date = July 2010           
magnetization =    1
density in atomic units:
0.23550400E+04
0.58767929E+02
0.17691832E+02
0.10873508E+02
0.63319082E+01
0.36559603E+01
0.19794071E+01
0.10190545E+01
0.55217832E+00
0.32147509E+00
0.20978345E+00
0.15889314E+00
0.13259242E+00
0.11745237E+00
0.10752702E+00
0.99037819E-01
0.90579405E-01
0.82481876E-01
0.74580930E-01
0.66825472E-01
0.59735313E-01
0.53345833E-01
0.47398329E-01
0.42044308E-01
0.37363041E-01
0.33189774E-01
0.29505791E-01
0.26329281E-01
0.23500171E-01
0.21045538E-01
0.18920748E-01
0.17029302E-01
0.15386603E-01
0.13948373E-01
0.12674623E-01
0.11532559E-01
0.10511681E-01
0.96018529E-02
0.87958779E-02
0.80615934E-02
0.73966570E-02
0.67914980E-02
0.62368289E-02
0.57407152E-02
0.52827634E-02
0.48509855E-02
0.44584177E-02
0.41036243E-02
0.37714134E-02
0.34650795E-02
0.31825257E-02
0.29204225E-02
0.26824388E-02
0.24648306E-02
0.22638408E-02
0.20781455E-02
0.19062294E-02
0.17487092E-02
0.16048949E-02
0.14737271E-02
0.13530876E-02
0.12427417E-02
0.11419157E-02
0.10494883E-02
0.96478517E-03
0.88838401E-03
0.81832195E-03
0.75342797E-03
0.69412123E-03
0.63947041E-03
0.59010618E-03
0.54489536E-03
0.50324557E-03
0.46525901E-03
0.43006390E-03
0.39769782E-03
0.36799797E-03
0.34056228E-03
0.31537280E-03
0.29231352E-03
0.27079810E-03
0.25082639E-03
0.23230434E-03
0.21518713E-03
0.19947567E-03
0.18497411E-03
0.17146001E-03
0.15891234E-03
0.14724999E-03
0.13631461E-03
0.12626605E-03
0.11688132E-03
0.10809833E-03
0.10002450E-03
0.92496717E-04
0.85472187E-04
0.79010752E-04
0.72956558E-04
0.67312903E-04
0.62112842E-04
