atomic number =   15
effective nuclear charge =   15
electron count =    2
net charge =   13
basis set = approximate basis set limit (UGBS)      
exchange correlation functional = PW91PW91            
cutoff radius (picometer) =  500
number of shells =  100
prepared by = Thomas A. Manz      
prepared date = July 2010           
net magnetization =    0
density in atomic units:
0.21809448E+04
0.42639771E+02
0.23321023E+01
0.15186618E+00
0.92398068E-02
0.87052048E-03
0.79587793E-04
0.62393524E-05
0.57303646E-06
0.53491647E-07
0.21705275E-08
0.19197867E-09
0.30312744E-09
0.64860249E-10
0.14781266E-10
0.91527071E-10
0.13712982E-09
0.11025337E-09
0.54830040E-10
0.13398498E-10
0.70039347E-12
0.62731756E-11
0.16461620E-10
0.22341297E-10
0.21664340E-10
0.16454478E-10
0.98653334E-11
0.44587771E-11
0.11698840E-11
0.71019959E-13
0.47763085E-12
0.15826975E-11
0.27050801E-11
0.34522526E-11
0.36918641E-11
0.34582461E-11
0.28914436E-11
0.21700859E-11
0.14582077E-11
0.84669592E-12
0.39822792E-12
0.12736844E-12
0.13234777E-13
0.19880417E-13
0.10300690E-12
0.22636942E-12
0.35268893E-12
0.45793008E-12
0.53219907E-12
0.56863786E-12
0.56822759E-12
0.53619446E-12
0.48149977E-12
0.41274257E-12
0.33725095E-12
0.26179747E-12
0.19148230E-12
0.13074683E-12
0.81719794E-13
0.45066527E-13
0.20098508E-13
0.57507993E-14
0.43388312E-15
0.21800777E-14
0.90903652E-14
0.19147468E-13
0.30885562E-13
0.43099079E-13
0.54561017E-13
0.64540915E-13
0.72380070E-13
0.77942549E-13
0.81197541E-13
0.82161783E-13
0.81107985E-13
0.78249541E-13
0.73930384E-13
0.68473446E-13
0.62252693E-13
0.55617698E-13
0.48721752E-13
0.41836126E-13
0.35192948E-13
0.28960995E-13
0.23318983E-13
0.18303926E-13
0.13905536E-13
0.10175334E-13
0.70906805E-14
0.46126886E-14
0.27483123E-14
0.14123614E-14
0.54880572E-15
0.10946384E-15
0.19860004E-16
0.21970342E-15
0.64539014E-15
0.12479812E-14
0.19782884E-14
0.27832363E-14
atomic number =   15
effective nuclear charge =   15
electron count =    4
net charge =   11
basis set = approximate basis set limit (UGBS)      
exchange correlation functional = PW91PW91            
cutoff radius (picometer) =  500
number of shells =  100
prepared by = Thomas A. Manz      
prepared date = July 2010           
net magnetization =    0
density in atomic units:
0.23418677E+04
0.43457882E+02
0.44885192E+01
0.26402276E+01
0.17351106E+01
0.10572226E+01
0.58253294E+00
0.29376161E+00
0.14751969E+00
0.72505012E-01
0.34829337E-01
0.17179169E-01
0.82551641E-02
0.38576263E-02
0.18784051E-02
0.92262600E-03
0.43613469E-03
0.20871217E-03
0.10029250E-03
0.47117966E-04
0.22530432E-04
0.11017682E-04
0.52966648E-05
0.25376316E-05
0.12281216E-05
0.58907187E-06
0.27947527E-06
0.13356367E-06
0.62649470E-07
0.29373751E-07
0.13935175E-07
0.65595631E-08
0.31549536E-08
0.15576177E-08
0.79036355E-09
0.41296480E-09
0.22311454E-09
0.12495611E-09
0.72404110E-10
0.42437286E-10
0.24904101E-10
0.14514395E-10
0.82836593E-11
0.47143752E-11
0.26894572E-11
0.16055578E-11
0.11158750E-11
0.94803299E-12
0.92670663E-12
0.95407276E-12
0.97362190E-12
0.95902008E-12
0.90496800E-12
0.81682946E-12
0.70456770E-12
0.58006285E-12
0.45405975E-12
0.33726562E-12
0.23640839E-12
0.15518877E-12
0.94296207E-13
0.53337383E-13
0.30496534E-13
0.22642131E-13
0.26539690E-13
0.38590391E-13
0.55752776E-13
0.75562874E-13
0.95439078E-13
0.11370665E-12
0.12882505E-12
0.14024678E-12
0.14769480E-12
0.15102904E-12
0.15052110E-12
0.14658869E-12
0.13966161E-12
0.13046531E-12
0.11956897E-12
0.10769675E-12
0.95112151E-13
0.82377972E-13
0.69929278E-13
0.58121978E-13
0.47324398E-13
0.37620484E-13
0.29040149E-13
0.21678538E-13
0.15527705E-13
0.10508295E-13
0.66713399E-14
0.38486827E-14
0.19395509E-14
0.86339413E-15
0.47761345E-15
0.66999152E-15
0.13210193E-14
0.23346170E-14
0.36155436E-14
0.50620535E-14
atomic number =   15
effective nuclear charge =   15
electron count =   10
net charge =    5
basis set = approximate basis set limit (UGBS)      
exchange correlation functional = PW91PW91            
cutoff radius (picometer) =  500
number of shells =  100
prepared by = Thomas A. Manz      
prepared date = July 2010           
net magnetization =    0
density in atomic units:
0.23418677E+04
0.58207989E+02
0.17125856E+02
0.10509916E+02
0.61778431E+01
0.36100745E+01
0.19747289E+01
0.10117843E+01
0.52369857E+00
0.26800767E+00
0.13526560E+00
0.70332490E-01
0.35824027E-01
0.17873185E-01
0.93015488E-02
0.48953681E-02
0.24979499E-02
0.12919990E-02
0.67104265E-03
0.34185243E-03
0.17704982E-03
0.93568713E-04
0.48763603E-04
0.25378482E-04
0.13353609E-04
0.69866792E-05
0.36323061E-05
0.19071856E-05
0.98995588E-06
0.51681019E-06
0.27421390E-06
0.14562696E-06
0.79255251E-07
0.44293646E-07
0.25375444E-07
0.14856076E-07
0.88921004E-08
0.54347917E-08
0.33822181E-08
0.21014215E-08
0.12910008E-08
0.77584372E-09
0.44621928E-09
0.24459454E-09
0.12209535E-09
0.51332813E-10
0.16553531E-10
0.38125067E-11
0.32525690E-11
0.88887595E-11
0.16655805E-10
0.24061470E-10
0.29595475E-10
0.32815983E-10
0.33745472E-10
0.32666061E-10
0.30003791E-10
0.26239556E-10
0.21957981E-10
0.17519101E-10
0.13283956E-10
0.95004985E-11
0.63371205E-11
0.38291531E-11
0.20070078E-11
0.84236822E-12
0.23663374E-12
0.95705006E-13
0.32810722E-12
0.82994782E-12
0.14907239E-11
0.22336889E-11
0.29924941E-11
0.36949211E-11
0.43109123E-11
0.48100625E-11
0.51782766E-11
0.54007072E-11
0.54994984E-11
0.54738007E-11
0.53362345E-11
0.50966813E-11
0.47825043E-11
0.44103562E-11
0.40028488E-11
0.35787731E-11
0.31423382E-11
0.27139836E-11
0.23036312E-11
0.19115404E-11
0.15584870E-11
0.12388454E-11
0.95624929E-12
0.71636252E-12
0.51445182E-12
0.35016835E-12
0.22301390E-12
0.12886930E-12
0.63231897E-13
0.24616095E-13
atomic number =   15
effective nuclear charge =   15
electron count =   12
net charge =    3
basis set = approximate basis set limit (UGBS)      
exchange correlation functional = PW91PW91            
cutoff radius (picometer) =  500
number of shells =  100
prepared by = Thomas A. Manz      
prepared date = July 2010           
net magnetization =    0
density in atomic units:
0.23563479E+04
0.58280560E+02
0.17328785E+02
0.10700084E+02
0.62691574E+01
0.36389258E+01
0.19777488E+01
0.10154918E+01
0.53966814E+00
0.29831165E+00
0.17709719E+00
0.11913879E+00
0.87807134E-01
0.69739245E-01
0.58806714E-01
0.50652072E-01
0.43566946E-01
0.37510488E-01
0.32094587E-01
0.27137410E-01
0.22866417E-01
0.19215895E-01
0.15979657E-01
0.13207489E-01
0.10902310E-01
0.89496542E-02
0.73156063E-02
0.59838053E-02
0.48666275E-02
0.39562867E-02
0.32191630E-02
0.26075901E-02
0.21147905E-02
0.17162986E-02
0.13916268E-02
0.11254306E-02
0.90901653E-03
0.73437917E-03
0.59499894E-03
0.48111912E-03
0.38891760E-03
0.31445627E-03
0.25387353E-03
0.20596848E-03
0.16697198E-03
0.13459964E-03
0.10873468E-03
0.88227185E-04
0.71358510E-04
0.57706788E-04
0.46661102E-04
0.37673090E-04
0.30505031E-04
0.24742814E-04
0.20051002E-04
0.16233476E-04
0.13122555E-04
0.10608849E-04
0.85829370E-05
0.69491889E-05
0.56223475E-05
0.45468501E-05
0.36806102E-05
0.29766934E-05
0.24052240E-05
0.19491497E-05
0.15787748E-05
0.12750355E-05
0.10293247E-05
0.83007984E-06
0.67095198E-06
0.54241116E-06
0.43795558E-06
0.35407888E-06
0.28576338E-06
0.23056585E-06
0.18611968E-06
0.15017604E-06
0.12131336E-06
0.98192281E-07
0.79353029E-07
0.64092305E-07
0.51777008E-07
0.41869114E-07
0.33959129E-07
0.27607509E-07
0.22451330E-07
0.18286237E-07
0.14916687E-07
0.12163366E-07
0.99618971E-08
0.81691001E-08
0.67034649E-08
0.55272582E-08
0.45661097E-08
0.37814929E-08
0.31461438E-08
0.26229314E-08
0.21912623E-08
0.18392374E-08
