atomic number =   16
effective nuclear charge =   16
electron count =    2
net charge =   14
basis set = approximate basis set limit (UGBS)      
exchange correlation functional = PW91PW91            
cutoff radius (picometer) =  500
number of shells =  100
prepared by = Thomas A. Manz      
prepared date = July 2010           
net magnetization =    0
density in atomic units:
0.26692910E+04
0.40958157E+02
0.18309482E+01
0.99962816E-01
0.49853506E-02
0.40012167E-03
0.31191183E-04
0.20565808E-05
0.17090113E-06
0.15066650E-07
0.40780693E-09
0.30547187E-09
0.31294695E-09
0.70925738E-10
0.74802204E-11
0.59817970E-10
0.98011127E-10
0.82216449E-10
0.42360331E-10
0.10994346E-10
0.58117080E-12
0.41354758E-11
0.11585621E-10
0.16129020E-10
0.15871839E-10
0.12194916E-10
0.73981784E-11
0.33979505E-11
0.92334051E-12
0.59554155E-13
0.31933451E-12
0.11121551E-11
0.19347668E-11
0.24923525E-11
0.26815392E-11
0.25233145E-11
0.21182524E-11
0.15957945E-11
0.10768430E-11
0.62875340E-12
0.29836344E-12
0.97237160E-13
0.10783039E-13
0.13193613E-13
0.72184446E-13
0.16126590E-12
0.25318967E-12
0.33015151E-12
0.38486309E-12
0.41215718E-12
0.41257332E-12
0.38992111E-12
0.35062231E-12
0.30091196E-12
0.24620161E-12
0.19137743E-12
0.14019185E-12
0.95908517E-13
0.60104624E-13
0.33278424E-13
0.14947096E-13
0.43511803E-14
0.34392343E-15
0.14970042E-14
0.64311265E-14
0.13681449E-13
0.22174670E-13
0.31033844E-13
0.39366453E-13
0.46631718E-13
0.52351051E-13
0.56419242E-13
0.58818137E-13
0.59535811E-13
0.58822779E-13
0.56766207E-13
0.53662556E-13
0.49722958E-13
0.45221002E-13
0.40412074E-13
0.35413584E-13
0.30420267E-13
0.25599441E-13
0.21076392E-13
0.16975557E-13
0.13332022E-13
0.10136189E-13
0.74205753E-14
0.51777112E-14
0.33720824E-14
0.20135657E-14
0.10381614E-14
0.40619862E-15
0.82732891E-16
0.13577054E-16
0.15506015E-15
0.46098953E-15
0.89594455E-15
0.14239701E-14
0.20061512E-14
atomic number =   16
effective nuclear charge =   16
electron count =    4
net charge =   12
basis set = approximate basis set limit (UGBS)      
exchange correlation functional = PW91PW91            
cutoff radius (picometer) =  500
number of shells =  100
prepared by = Thomas A. Manz      
prepared date = July 2010           
net magnetization =    0
density in atomic units:
0.28731697E+04
0.41870834E+02
0.48341260E+01
0.30234377E+01
0.18241711E+01
0.10260284E+01
0.52220726E+00
0.24246572E+00
0.11256157E+00
0.51267404E-01
0.22784244E-01
0.10437267E-01
0.46556853E-02
0.20145269E-02
0.91288507E-03
0.41820100E-03
0.18344691E-03
0.81366066E-04
0.36185746E-04
0.15650592E-04
0.68903132E-05
0.31123393E-05
0.13818643E-05
0.61328160E-06
0.27641596E-06
0.12395314E-06
0.55175487E-07
0.24881436E-07
0.11063697E-07
0.49584004E-08
0.22792792E-08
0.10604844E-08
0.51847904E-09
0.26928473E-09
0.14865073E-09
0.86348352E-10
0.51939893E-10
0.31555810E-10
0.18846444E-10
0.10540764E-10
0.52589812E-11
0.21616188E-11
0.61901200E-12
0.17510940E-12
0.40345131E-12
0.10074037E-11
0.17194834E-11
0.23586244E-11
0.28426497E-11
0.31139104E-11
0.31668509E-11
0.30279407E-11
0.27444336E-11
0.23688863E-11
0.19447920E-11
0.15140413E-11
0.11086762E-11
0.75620039E-12
0.47099775E-12
0.25790158E-12
0.11366978E-12
0.32410289E-13
0.48782533E-14
0.19416318E-13
0.64654276E-13
0.12840696E-12
0.20182577E-12
0.27760940E-12
0.34837012E-12
0.40956442E-12
0.45720692E-12
0.49087438E-12
0.50997249E-12
0.51508879E-12
0.50700839E-12
0.48825901E-12
0.46039257E-12
0.42565886E-12
0.38622905E-12
0.34448488E-12
0.30106486E-12
0.25789375E-12
0.21632479E-12
0.17751409E-12
0.14239757E-12
0.11127723E-12
0.84087271E-13
0.61083286E-13
0.42205978E-13
0.27112623E-13
0.15881160E-13
0.79545855E-14
0.29820625E-14
0.64478234E-15
0.48023031E-15
0.21027650E-14
0.51092845E-14
0.91964400E-14
0.14051438E-13
0.19339168E-13
atomic number =   16
effective nuclear charge =   16
electron count =   10
net charge =    6
basis set = approximate basis set limit (UGBS)      
exchange correlation functional = PW91PW91            
cutoff radius (picometer) =  500
number of shells =  100
prepared by = Thomas A. Manz      
prepared date = July 2010           
net magnetization =    0
density in atomic units:
0.28731697E+04
0.60966507E+02
0.19936966E+02
0.11702957E+02
0.63591194E+01
0.34625630E+01
0.17612171E+01
0.83501858E+00
0.40103590E+00
0.19074705E+00
0.89330435E-01
0.43244570E-01
0.20476751E-01
0.94666090E-02
0.45860899E-02
0.22517105E-02
0.10673758E-02
0.51274884E-03
0.24713320E-03
0.11629996E-03
0.55651446E-04
0.27250439E-04
0.13150350E-04
0.63499447E-05
0.31119082E-05
0.15188040E-05
0.73667002E-06
0.36121392E-06
0.17463030E-06
0.84799687E-07
0.41909292E-07
0.20769601E-07
0.10645056E-07
0.56878471E-08
0.31793757E-08
0.18596424E-08
0.11371154E-08
0.72284184E-09
0.47195353E-09
0.30832972E-09
0.19787159E-09
0.12259817E-09
0.71301604E-10
0.38443436E-10
0.18275369E-10
0.72261533E-11
0.29783678E-11
0.30176673E-11
0.54378958E-11
0.88444183E-11
0.12244644E-10
0.15036247E-10
0.16822004E-10
0.17568117E-10
0.17333175E-10
0.16295656E-10
0.14633215E-10
0.12596017E-10
0.10390834E-10
0.82189472E-11
0.61964570E-11
0.44238909E-11
0.29732094E-11
0.18508047E-11
0.10559402E-11
0.56853296E-12
0.33774660E-12
0.31643736E-12
0.45881544E-12
0.71518274E-12
0.10349115E-11
0.13819349E-11
0.17229147E-11
0.20323376E-11
0.22982165E-11
0.25054188E-11
0.26480348E-11
0.27231867E-11
0.27351201E-11
0.26852229E-11
0.25906269E-11
0.24551962E-11
0.22893857E-11
0.20961282E-11
0.18881370E-11
0.16762444E-11
0.14661573E-11
0.12581334E-11
0.10601264E-11
0.87636273E-12
0.71110869E-12
0.56365535E-12
0.43475979E-12
0.32668852E-12
0.23685424E-12
0.16507431E-12
0.11068890E-12
0.71524431E-13
0.45888945E-13
0.32446498E-13
atomic number =   16
effective nuclear charge =   16
electron count =   12
net charge =    4
basis set = approximate basis set limit (UGBS)      
exchange correlation functional = PW91PW91            
cutoff radius (picometer) =  500
number of shells =  100
prepared by = Thomas A. Manz      
prepared date = July 2010           
net magnetization =    0
density in atomic units:
0.28931213E+04
0.61060284E+02
0.20235313E+02
0.11926088E+02
0.64415874E+01
0.34783971E+01
0.17628438E+01
0.85174513E+00
0.43953720E+00
0.24764916E+00
0.15750310E+00
0.11552832E+00
0.91611437E-01
0.75730540E-01
0.64296164E-01
0.54625154E-01
0.45733273E-01
0.38089350E-01
0.31425059E-01
0.25560541E-01
0.20734087E-01
0.16795976E-01
0.13465088E-01
0.10737786E-01
0.85645551E-02
0.67987121E-02
0.53782864E-02
0.42630485E-02
0.33598645E-02
0.26488982E-02
0.20920499E-02
0.16447084E-02
0.12954583E-02
0.10214994E-02
0.80497819E-03
0.63264859E-03
0.49661094E-03
0.39003079E-03
0.30739800E-03
0.24179976E-03
0.19017803E-03
0.14963352E-03
0.11756472E-03
0.92904978E-04
0.73361058E-04
0.57583788E-04
0.45314144E-04
0.35841578E-04
0.28256296E-04
0.22276861E-04
0.17567554E-04
0.13834076E-04
0.10932597E-04
0.86598802E-05
0.68556369E-05
0.54242241E-05
0.42858924E-05
0.33890553E-05
0.26831774E-05
0.21275664E-05
0.16866827E-05
0.13372389E-05
0.10618485E-05
0.84278378E-06
0.66865096E-06
0.53238449E-06
0.42387842E-06
0.33647399E-06
0.26711717E-06
0.21183902E-06
0.16844633E-06
0.13396081E-06
0.10638608E-06
0.84594845E-07
0.67109269E-07
0.53199258E-07
0.42177039E-07
0.33396770E-07
0.26451271E-07
0.20980318E-07
0.16592701E-07
0.13096897E-07
0.10324796E-07
0.81338900E-08
0.64181211E-08
0.50676303E-08
0.39938635E-08
0.31462919E-08
0.24763460E-08
0.19430517E-08
0.15280052E-08
0.11998280E-08
0.93997365E-09
0.73829931E-09
0.57949656E-09
0.45484072E-09
0.35818923E-09
0.28208455E-09
0.22246448E-09
0.17633750E-09
